time,ax,ay,az,timestamp
0.0,-0.8836090087890626,9.97391052246094,-1.11553955078125,1721729620339702.0
-1709999999999.9531,9.090899658203126,2.032644653320313,3.187362670898438,11729620339749.0
-1719999999897.011,0.55328369140625,7.173248291015626,5.837741088867188,1729620442691.0
-1719999999897.001,0.2077056884765625,7.306185913085938,7.327270507812501,1729620442701.0
-1719999999896.991,0.24344482421875,7.703204345703125,6.765164184570313,1729620442711.0
-1719999999896.981,0.1574615478515625,7.267456054687501,5.9672393798828125,1729620442721.0
-1719999999896.971,-0.452197265625,7.089208984375,5.82054443359375,1729620442731.0
-1719999999896.961,-0.9135162353515626,6.997543334960938,7.387982177734376,1729620442741.0
-1719999999896.951,-0.8098876953125,7.221398925781251,8.117868041992189,1729620442751.0
-1719999999896.9412,-0.3349609375,7.191641235351563,6.639404296875001,1729620442761.0
-1719999999896.9312,-0.020037841796875,7.135714721679688,5.6502227783203125,1729620442771.0
-1719999999896.9211,0.2106964111328125,7.337289428710938,5.871685791015626,1729620442781.0
-1719999999896.9111,0.5384796142578125,7.532434082031251,7.320541381835938,1729620442791.0
-1719999999896.9011,0.7662231445312501,7.227978515625001,7.08262939453125,1729620442801.0
-1719999999896.891,0.6181823730468751,7.125396728515626,6.126345825195313,1729620442811.0
-1719999999896.881,0.1840789794921875,7.090853881835938,6.294125366210938,1729620442821.0
-1719999999896.871,-0.179144287109375,7.298110961914063,6.767556762695313,1729620442831.0
-1719999999896.861,-0.4689453125,7.413104248046875,7.344766235351563,1729620442841.0
-1719999999896.851,-0.5927612304687501,7.205996704101563,6.309826660156251,1729620442851.0
-1719999999896.842,-0.6919036865234376,6.9985900878906255,6.153561401367188,1729620442860.0
-1719999999896.832,-0.441729736328125,7.084573364257813,6.904083251953126,1729620442870.0
-1719999999896.821,-0.0937591552734375,7.410412597656251,7.368243408203125,1729620442881.0
-1719999999896.812,0.352008056640625,7.292578125,6.684414672851563,1729620442890.0
-1719999999896.802,0.728240966796875,7.2447265625,5.579791259765625,1729620442900.0
-1719999999896.792,0.73392333984375,7.495947265625,6.168215942382813,1729620442910.0
-1719999999896.782,0.54072265625,7.377365112304688,6.934140014648438,1729620442920.0
-1719999999896.772,0.13338623046875,7.221249389648438,7.037918090820313,1729620442930.0
-1719999999896.762,-0.27694091796875,7.037319946289063,6.497793579101563,1729620442940.0
-1719999999896.752,-0.5194885253906251,7.105657958984375,6.231170654296876,1729620442950.0
-1719999999896.742,-0.54132080078125,7.3440185546875005,6.788940429687501,1729620442960.0
-1719999999896.732,-0.448907470703125,7.219604492187501,6.787295532226563,1729620442970.0
-1719999999896.721,-0.2308837890625,7.002926635742188,6.777725219726563,1729620442981.0
-1719999999896.7122,0.0270660400390625,7.133920288085938,6.8012023925781255,1729620442990.0
-1719999999896.702,0.399261474609375,7.425216674804688,6.45457763671875,1729620443000.0
-1719999999896.692,0.5985931396484375,7.774832153320313,6.624301147460938,1729620443010.0
-1719999999896.682,0.4816558837890625,7.470825195312501,6.1252990722656255,1729620443020.0
-1719999999896.672,0.066094970703125,6.686508178710938,5.93778076171875,1729620443030.0
-1719999999896.662,-0.2746978759765625,7.115078735351563,7.376766967773438,1729620443040.0
-1719999999896.652,-0.222210693359375,7.191940307617188,7.804141235351563,1729620443050.0
-1719999999896.642,-0.2322296142578125,7.2626708984375,6.592599487304688,1729620443060.0
-1719999999896.632,-0.5806488037109375,7.1693603515625,6.318051147460938,1729620443070.0
-1719999999896.621,-0.67530517578125,7.347308349609375,5.935089111328125,1729620443081.0
-1719999999896.612,-0.2770904541015625,7.557257080078125,6.997842407226563,1729620443090.0
-1719999999896.602,0.289801025390625,7.509555053710938,6.3540893554687505,1729620443100.0
-1719999999896.592,0.5561248779296876,7.060498046875001,6.0687744140625,1729620443110.0
-1719999999896.582,0.4604217529296875,6.977505493164063,7.001730346679688,1729620443120.0
-1719999999896.572,0.3946258544921875,7.023861694335938,7.567425537109376,1729620443130.0
-1719999999896.562,0.179443359375,7.398898315429688,7.294671630859376,1729620443140.0
-1719999999896.552,-0.03828125,7.322784423828126,5.6716064453125,1729620443150.0
-1719999999896.542,-0.3566436767578125,7.379608154296876,5.3432250976562505,1729620443160.0
-1719999999896.532,-0.5441619873046876,7.515686035156251,6.574356079101563,1729620443170.0
-1719999999896.521,-0.4798614501953125,7.289437866210938,7.415496826171876,1729620443181.0
-1719999999896.512,-0.2811279296875,6.913803100585938,7.079937744140626,1729620443190.0
-1719999999896.502,-0.0107666015625,6.866699218750001,6.591104125976563,1729620443200.0
-1719999999896.492,0.1706207275390625,6.977355957031251,6.891671752929688,1729620443210.0
-1719999999896.4832,0.2989227294921875,7.37392578125,7.161135864257813,1729620443219.0
-1719999999896.4731,0.2743988037109375,7.51329345703125,6.630432128906251,1729620443229.0
-1719999999896.4622,0.2818756103515625,7.314559936523438,5.339935302734375,1729620443240.0
-1719999999896.4531,0.14534912109375,7.364505004882813,6.032138061523438,1729620443249.0
-1719999999896.443,0.006878662109375,7.483834838867188,6.938327026367188,1729620443259.0
-1719999999896.433,-0.1371246337890625,7.227679443359375,7.221997070312501,1729620443269.0
-1719999999896.4211,-0.1565643310546875,6.996646118164063,6.516186523437501,1729620443281.0
-1719999999896.413,-0.1323394775390625,7.0404602050781255,6.4133056640625,1729620443289.0
-1719999999896.403,-0.2008270263671875,7.1974731445312505,7.078292846679688,1729620443299.0
-1719999999896.393,-0.204266357421875,7.309326171875001,7.0763488769531255,1729620443309.0
-1719999999896.383,-0.17166748046875,7.228427124023438,6.578244018554688,1729620443319.0
-1719999999896.373,-0.0255706787109375,7.182220458984376,5.952584838867188,1729620443329.0
-1719999999896.363,0.09989013671875,7.294073486328125,6.600225830078125,1729620443339.0
-1719999999896.353,0.2238555908203125,7.443759155273438,6.830062866210938,1729620443349.0
-1719999999896.343,0.353802490234375,7.3344482421875,6.20933837890625,1729620443359.0
-1719999999896.333,0.6359771728515625,7.281213378906251,5.940023803710938,1729620443369.0
-1719999999896.321,0.5812469482421876,7.104013061523438,6.5619445800781255,1729620443381.0
-1719999999896.313,0.0306549072265625,7.157846069335938,7.34581298828125,1729620443389.0
-1719999999896.303,-0.4451690673828125,7.231268310546875,7.698120117187501,1729620443399.0
-1719999999896.293,-0.558966064453125,7.518676757812501,6.4198852539062505,1729620443409.0
-1719999999896.283,-0.798223876953125,7.039114379882813,5.663531494140625,1729620443419.0
-1719999999896.273,-0.9562835693359376,7.111639404296875,6.267059326171876,1729620443429.0
-1719999999896.263,-0.6350799560546876,7.280166625976563,7.622454833984375,1729620443439.0
-1719999999896.253,0.4140655517578125,7.450338745117188,6.8224365234375,1729620443449.0
-1719999999896.2432,1.0573699951171875,7.073059082031251,6.333453369140625,1729620443459.0
-1719999999896.2332,0.7929901123046875,7.099826049804688,6.338388061523438,1729620443469.0
-1719999999896.221,0.3886444091796875,7.279418945312501,7.127938842773438,1729620443481.0
-1719999999896.2131,0.3887939453125,7.623352050781251,6.785052490234375,1729620443489.0
-1719999999896.2031,0.101983642578125,7.3607666015625,5.8864898681640625,1729620443499.0
-1719999999896.193,-0.733624267578125,7.1550048828125,5.796917724609376,1729620443509.0
-1719999999896.183,-1.2879547119140626,6.945205688476563,7.416842651367188,1729620443519.0
-1719999999896.173,-1.0080230712890623,7.262521362304688,7.742382812500001,1729620443529.0
-1719999999896.163,-0.3389984130859375,7.213772583007813,6.931896972656251,1729620443539.0
-1719999999896.153,0.068487548828125,7.062442016601563,5.701214599609376,1729620443549.0
-1719999999896.143,0.3799713134765625,7.211080932617188,6.064886474609375,1729620443559.0
-1719999999896.133,0.8291778564453126,7.611389160156251,7.377514648437501,1729620443569.0
-1719999999896.121,1.1073150634765625,7.303643798828125,6.832904052734375,1729620443581.0
-1719999999896.113,0.7689147949218751,7.171752929687501,5.933294677734375,1729620443589.0
-1719999999896.104,0.1160400390625,7.202407836914063,6.169711303710938,1729620443598.0
-1719999999896.094,-0.34273681640625,7.225286865234375,6.936083984375,1729620443608.0
-1719999999896.084,-0.7394561767578125,7.281213378906251,7.313662719726563,1729620443618.0
-1719999999896.074,-0.9171051025390624,7.120462036132813,6.608599853515625,1729620443628.0
-1719999999896.064,-0.9017028808593752,6.956271362304688,6.469830322265626,1729620443638.0
-1719999999896.054,-0.5908172607421875,7.080386352539063,6.825576782226563,1729620443648.0
-1719999999896.044,0.06160888671875,7.41220703125,7.143939208984375,1729620443658.0
-1719999999896.034,0.6724639892578126,7.369140625000001,6.545944213867188,1729620443668.0
-1719999999896.021,1.0107147216796877,7.38828125,5.5096588134765625,1729620443681.0
-1719999999896.0142,1.044659423828125,7.421926879882813,6.170309448242188,1729620443688.0
-1719999999896.0042,0.7334747314453125,7.459161376953125,6.922177124023438,1729620443698.0
-1719999999895.994,0.1012359619140625,7.112985229492188,7.057208251953125,1729620443708.0
-1719999999895.984,-0.4880859375,7.079190063476563,6.4782043457031255,1729620443718.0
-1719999999895.974,-0.8048034667968751,7.140798950195313,6.324929809570313,1729620443728.0
-1719999999895.964,-0.784765625,7.3245788574218755,6.559701538085938,1729620443738.0
-1719999999895.954,-0.6237152099609375,7.141397094726563,7.056759643554688,1729620443748.0
-1719999999895.944,-0.3790740966796875,7.000534057617188,6.957916259765626,1729620443758.0
-1719999999895.934,0.0919647216796875,7.066928100585938,6.78056640625,1729620443768.0
-1719999999895.924,0.7977752685546876,7.5234619140625005,6.310275268554688,1729620443778.0
-1719999999895.914,0.9531433105468752,7.866946411132813,6.379360961914063,1729620443788.0
-1719999999895.904,0.6374725341796875,7.301699829101563,6.0849243164062505,1729620443798.0
-1719999999895.894,0.022430419921875,6.8702880859375,6.356033325195313,1729620443808.0
-1719999999895.884,-0.357989501953125,6.988870239257813,7.500134277343751,1729620443818.0
-1719999999895.874,-0.42288818359375,7.23515625,7.359420776367188,1729620443828.0
-1719999999895.864,-0.626556396484375,7.184613037109376,6.708340454101563,1729620443838.0
-1719999999895.854,-0.8179626464843751,7.139602661132813,6.287844848632813,1729620443848.0
-1719999999895.844,-0.740203857421875,7.5282470703125,6.452035522460938,1729620443858.0
-1719999999895.834,-0.012261962890625,7.490264892578126,6.624301147460938,1729620443868.0
-1719999999895.824,0.4807586669921875,7.489517211914063,6.061746215820313,1729620443878.0
-1719999999895.814,0.7206146240234376,7.011749267578126,6.2673583984375005,1729620443888.0
-1719999999895.804,0.7707092285156251,7.052871704101563,7.126144409179688,1729620443898.0
-1719999999895.794,0.5202362060546876,7.180126953125001,7.684512329101563,1729620443908.0
-1719999999895.784,0.124713134765625,7.166668701171876,6.885690307617188,1729620443918.0
-1719999999895.774,-0.480609130859375,7.315307617187501,5.882601928710938,1729620443928.0
-1719999999895.7651,-0.7615875244140625,7.455422973632813,5.762225341796875,1729620443937.0
-1719999999895.7542,-0.8028594970703126,7.591949462890626,6.584674072265625,1729620443948.0
-1719999999895.745,-0.5042358398437501,7.1914916992187505,6.928906250000001,1729620443957.0
-1719999999895.735,-0.172564697265625,6.810922241210938,6.862362670898438,1729620443967.0
-1719999999895.725,0.245538330078125,6.968533325195313,7.1376586914062505,1729620443977.0
-1719999999895.715,0.6515289306640626,7.106854248046876,7.215118408203126,1729620443987.0
-1719999999895.705,0.6225189208984375,7.350897216796875,6.638656616210938,1729620443997.0
-1719999999895.695,0.460272216796875,7.3694396972656255,5.931948852539063,1729620444007.0
-1719999999895.685,0.2009765625,7.392617797851563,5.8651062011718755,1729620444017.0
-1719999999895.675,-0.1973876953125,7.510452270507813,6.4752136230468755,1729620444027.0
-1719999999895.665,-0.3937286376953125,7.314260864257813,6.865353393554688,1729620444037.0
-1719999999895.655,-0.4843475341796875,7.198071289062501,6.664376831054688,1729620444047.0
-1719999999895.645,-0.3494659423828125,6.90677490234375,6.688302612304688,1729620444057.0
-1719999999895.635,-0.16090087890625,7.113284301757813,6.984085083007813,1729620444067.0
-1719999999895.625,0.030804443359375,7.268203735351563,7.106106567382813,1729620444077.0
-1719999999895.615,0.229388427734375,7.267007446289063,6.531439208984375,1729620444087.0
-1719999999895.605,0.267669677734375,7.171154785156251,6.293975830078126,1729620444097.0
-1719999999895.595,0.1416107177734375,7.260577392578125,6.48209228515625,1729620444107.0
-1719999999895.585,0.0019439697265625,7.340728759765626,6.794772338867188,1729620444117.0
-1719999999895.575,0.15850830078125,7.562640380859375,6.3301635742187505,1729620444127.0
-1719999999895.565,0.2011260986328125,7.220352172851563,5.786898803710938,1729620444137.0
-1719999999895.555,0.2053131103515625,7.261474609375001,6.036773681640625,1729620444147.0
-1719999999895.545,0.136676025390625,7.008010864257813,7.531985473632813,1729620444157.0
-1719999999895.5352,-0.050543212890625,7.1047607421875005,7.232763671875,1729620444167.0
-1719999999895.5251,-0.1269561767578125,7.110891723632813,7.3709350585937505,1729620444177.0
-1719999999895.5151,-0.256903076171875,7.653707885742188,6.216366577148438,1729620444187.0
-1719999999895.5051,-0.719268798828125,7.20584716796875,6.0405120849609375,1729620444197.0
-1719999999895.495,-0.7672698974609375,7.083377075195313,6.269900512695313,1729620444207.0
-1719999999895.485,-0.3644195556640625,7.421627807617188,7.0763488769531255,1729620444217.0
-1719999999895.475,0.4699920654296875,7.25968017578125,6.654507446289063,1729620444227.0
-1719999999895.465,0.763531494140625,7.1541076660156255,6.6621337890625005,1729620444237.0
-1719999999895.455,0.4122711181640625,7.008010864257813,7.077993774414063,1729620444247.0
-1719999999895.445,0.219818115234375,7.174444580078125,6.716564941406251,1729620444257.0
-1719999999895.435,0.228790283203125,7.6095947265625,6.651217651367188,1729620444267.0
-1719999999895.425,0.0892730712890625,7.392169189453125,5.6560546875,1729620444277.0
-1719999999895.415,-0.6524261474609375,7.344766235351563,6.154010009765625,1729620444287.0
-1719999999895.405,-0.9199462890625,6.979449462890625,7.305587768554688,1729620444297.0
-1719999999895.395,-0.6805389404296875,7.083676147460938,7.527798461914063,1729620444307.0
-1719999999895.386,-0.28770751953125,7.143789672851563,7.052124023437501,1729620444316.0
-1719999999895.376,-0.0055328369140625,7.0138427734375,6.14713134765625,1729620444326.0
-1719999999895.366,0.241650390625,7.325177001953126,6.244778442382813,1729620444336.0
-1719999999895.356,0.6619964599609376,7.58865966796875,6.769052124023438,1729620444346.0
-1719999999895.346,0.813177490234375,7.3320556640625005,6.488522338867188,1729620444356.0
-1719999999895.336,0.6208740234375001,7.282708740234376,6.1405517578125,1729620444366.0
-1719999999895.326,0.165386962890625,7.177136230468751,6.429904174804688,1729620444376.0
-1719999999895.315,-0.1471435546875,7.118069458007813,6.841726684570313,1729620444387.0
-1719999999895.3062,-0.45877685546875,7.269699096679688,7.438076782226563,1729620444396.0
-1719999999895.296,-0.7606903076171876,7.179229736328126,6.586019897460938,1729620444406.0
-1719999999895.286,-0.789251708984375,6.93907470703125,6.278125,1729620444416.0
-1719999999895.276,-0.527264404296875,7.305587768554688,6.557608032226563,1729620444426.0
-1719999999895.266,0.01016845703125,7.454974365234375,6.978402709960938,1729620444436.0
-1719999999895.256,0.481207275390625,7.280764770507813,6.65196533203125,1729620444446.0
-1719999999895.246,0.705810546875,7.28958740234375,5.98563232421875,1729620444456.0
-1719999999895.236,0.7831207275390626,7.215267944335938,6.470278930664063,1729620444466.0
-1719999999895.226,0.622967529296875,7.472320556640626,6.796417236328126,1729620444476.0
-1719999999895.216,0.2202667236328125,7.210183715820313,6.894961547851563,1729620444486.0
-1719999999895.206,-0.3671112060546875,7.135266113281251,6.2123291015625,1729620444496.0
-1719999999895.196,-0.6612487792968751,7.155902099609375,6.647479248046875,1729620444506.0
-1719999999895.186,-0.752166748046875,7.318597412109376,6.871633911132813,1729620444516.0
-1719999999895.176,-0.6084625244140626,7.188800048828125,6.589459228515626,1729620444526.0
-1719999999895.166,-0.2038177490234375,6.9253173828125005,6.664974975585938,1729620444536.0
-1719999999895.156,0.1308441162109375,7.105209350585938,6.663180541992188,1729620444546.0
-1719999999895.146,0.6196777343750001,7.456918334960938,6.881652832031251,1729620444556.0
-1719999999895.136,0.8732910156250001,7.70469970703125,6.705349731445313,1729620444566.0
-1719999999895.126,0.6809875488281251,7.751205444335938,5.767758178710938,1729620444576.0
-1719999999895.116,0.1404144287109375,6.752154541015625,5.8894805908203125,1729620444586.0
-1719999999895.106,-0.482403564453125,7.002627563476563,6.900045776367188,1729620444596.0
-1719999999895.096,-0.6383697509765626,7.166220092773438,8.189944458007814,1729620444606.0
-1719999999895.086,-0.4170562744140625,7.2034545898437505,6.764117431640625,1729620444616.0
-1719999999895.076,-0.5970977783203125,7.1466308593750005,6.537570190429688,1729620444626.0
-1719999999895.0662,-0.8182617187500001,7.085919189453126,6.051577758789063,1729620444636.0
-1719999999895.0562,-0.3428863525390625,7.622305297851563,6.816604614257813,1729620444646.0
-1719999999895.046,0.5341430664062501,7.67479248046875,6.730023193359376,1729620444656.0
-1719999999895.036,0.9428253173828126,7.255194091796875,5.310476684570313,1729620444666.0
-1719999999895.026,0.6691741943359375,6.955673217773438,6.836343383789063,1729620444676.0
-1719999999895.016,0.492572021484375,6.962103271484375,7.494750976562501,1729620444686.0
-1719999999895.007,0.233575439453125,7.451235961914063,7.853936767578125,1729620444695.0
-1719999999894.997,-0.0976470947265625,7.1932861328125,6.115878295898438,1729620444705.0
-1719999999894.987,-0.6590057373046876,7.293325805664063,4.795025634765626,1729620444715.0
-1719999999894.977,-0.9927703857421876,7.441366577148438,6.735556030273438,1729620444725.0
-1719999999894.967,-0.7155303955078125,7.39127197265625,7.387832641601563,1729620444735.0
-1719999999894.957,-0.3243438720703125,6.9926086425781255,7.321737670898438,1729620444745.0
-1719999999894.947,0.0610107421875,6.874026489257813,6.298461914062501,1729620444755.0
-1719999999894.937,0.3695037841796875,6.808380126953126,6.776229858398438,1729620444765.0
-1719999999894.927,0.70999755859375,7.40562744140625,7.375869750976563,1729620444775.0
-1719999999894.917,0.6418090820312501,7.6275390625,6.764715576171875,1729620444785.0
-1719999999894.907,0.5147033691406251,7.2647644042968755,5.359524536132813,1729620444795.0
-1719999999894.897,0.0680389404296875,7.446899414062501,5.5948944091796875,1729620444805.0
-1719999999894.887,-0.2758941650390625,7.45108642578125,6.913952636718751,1729620444815.0
-1719999999894.877,-0.391485595703125,7.330859375,7.32188720703125,1729620444825.0
-1719999999894.867,-0.4930206298828125,7.030441284179688,6.650320434570313,1729620444835.0
-1719999999894.857,-0.3351104736328125,6.880905151367188,6.196328735351563,1729620444845.0
-1719999999894.847,-0.2358184814453125,7.063937377929688,7.374075317382813,1729620444855.0
-1719999999894.8372,-0.12142333984375,7.256689453125,7.531985473632813,1729620444865.0
-1719999999894.8271,-0.0542816162109375,7.168911743164063,6.721649169921876,1729620444875.0
-1719999999894.8171,0.27275390625,7.314111328125,5.5041259765625,1729620444885.0
-1719999999894.8071,0.457879638671875,7.553668212890625,5.908322143554688,1729620444895.0
-1719999999894.797,0.4510009765625,7.637258911132813,6.480895996093751,1729620444905.0
-1719999999894.787,0.4122711181640625,7.184613037109376,6.650769042968751,1729620444915.0
-1719999999894.776,0.2878570556640625,7.061096191406251,6.427810668945313,1729620444926.0
-1719999999894.767,0.26617431640625,6.919784545898438,6.790435791015626,1729620444935.0
-1719999999894.757,-0.1777984619140625,7.195678710937501,7.446151733398438,1729620444945.0
-1719999999894.747,-0.663641357421875,7.430450439453126,7.542752075195313,1729620444955.0
-1719999999894.737,-0.9882843017578126,7.489816284179688,6.417343139648438,1729620444965.0
-1719999999894.726,-0.90738525390625,6.768603515625,5.134771728515625,1729620444976.0
-1719999999894.717,-0.5402740478515625,7.373776245117188,6.366351318359375,1729620444985.0
-1719999999894.707,0.199481201171875,7.574154663085938,7.75673828125,1729620444995.0
-1719999999894.697,0.9888824462890624,7.236801147460938,6.725985717773438,1729620445005.0
-1719999999894.687,0.9017028808593752,6.796417236328126,6.713574218750001,1729620445015.0
-1719999999894.677,0.5628540039062501,7.019076538085938,6.244180297851563,1729620445025.0
-1719999999894.667,0.286212158203125,7.642343139648438,7.470526123046875,1729620445035.0
-1719999999894.657,0.000299072265625,7.7044006347656255,6.368743896484376,1729620445045.0
-1719999999894.647,-0.5822937011718751,7.265213012695313,5.000189208984375,1729620445055.0
-1719999999894.637,-1.0696319580078126,6.987374877929688,6.382202148437501,1729620445065.0
-1719999999894.627,-0.96719970703125,7.103713989257813,7.853039550781251,1729620445075.0
-1719999999894.617,-0.5580688476562501,7.169210815429688,8.343817138671875,1729620445085.0
-1719999999894.607,-0.048748779296875,6.95701904296875,6.330313110351563,1729620445095.0
-1719999999894.597,0.33197021484375,6.982888793945313,5.461209106445313,1729620445105.0
-1719999999894.588,0.7298858642578125,7.659091186523438,6.35887451171875,1729620445114.0
-1719999999894.578,0.8985626220703126,7.613781738281251,7.261624145507813,1729620445124.0
-1719999999894.5671,0.661846923828125,7.2393432617187505,6.3600708007812505,1729620445135.0
-1719999999894.558,0.289202880859375,7.192388916015625,5.713775634765625,1729620445144.0
-1719999999894.548,-0.02332763671875,7.270596313476563,6.463699340820313,1729620445154.0
-1719999999894.538,-0.388494873046875,7.332952880859375,7.278372192382813,1729620445164.0
-1719999999894.528,-0.757550048828125,7.088909912109376,7.178631591796876,1729620445174.0
-1719999999894.518,-0.7856628417968751,6.872531127929688,6.505270385742188,1729620445184.0
-1719999999894.508,-0.6237152099609375,7.009356689453125,6.756042480468751,1729620445194.0
-1719999999894.498,-0.1921539306640625,7.315606689453125,6.858474731445313,1729620445204.0
-1719999999894.488,0.1828826904296875,7.436581420898438,6.968832397460938,1729620445214.0
-1719999999894.478,0.55447998046875,7.342822265625,5.8534423828125,1729620445224.0
-1719999999894.468,0.81885986328125,7.460208129882813,5.911013793945313,1729620445234.0
-1719999999894.458,0.7553070068359375,7.437478637695313,6.525457763671875,1729620445244.0
-1719999999894.448,0.3895416259765625,7.191790771484375,6.929953002929688,1729620445254.0
-1719999999894.438,-0.1577606201171875,7.087713623046875,7.16995849609375,1729620445264.0
-1719999999894.428,-0.4499542236328125,7.015487670898438,6.416146850585938,1729620445274.0
-1719999999894.418,-0.6195281982421875,7.3350463867187505,6.6501708984375005,1729620445284.0
-1719999999894.408,-0.6150421142578125,7.435385131835938,6.475363159179688,1729620445294.0
-1719999999894.398,-0.5175445556640625,7.106405639648438,6.357528686523438,1729620445304.0
-1719999999894.388,-0.17286376953125,6.739593505859376,6.925616455078125,1729620445314.0
-1719999999894.378,0.2905487060546875,7.222744750976563,7.195678710937501,1729620445324.0
-1719999999894.3682,0.609808349609375,7.391421508789063,6.969729614257813,1729620445334.0
-1719999999894.3582,0.8441314697265626,7.656997680664063,5.762673950195313,1729620445344.0
-1719999999894.348,0.6030792236328125,7.927807617187501,5.947500610351563,1729620445354.0
-1719999999894.338,0.04844970703125,6.95701904296875,6.022418212890625,1729620445364.0
-1719999999894.328,-0.6308929443359376,6.799407958984376,7.149172973632813,1729620445374.0
-1719999999894.318,-0.7116424560546876,7.1071533203125,7.993453979492188,1729620445384.0
-1719999999894.308,-0.23148193359375,7.140350341796876,6.578692626953125,1729620445394.0
-1719999999894.298,-0.3177642822265625,7.402487182617188,6.69144287109375,1729620445404.0
-1719999999894.288,-0.6519775390625,6.950588989257813,6.150570678710938,1729620445414.0
-1719999999894.278,-0.433953857421875,7.451834106445313,6.716116333007813,1729620445424.0
-1719999999894.269,0.4215423583984375,7.63890380859375,6.871633911132813,1729620445433.0
-1719999999894.258,0.9680969238281252,7.399047851562501,5.463153076171875,1729620445444.0
-1719999999894.249,0.5052825927734376,7.073507690429688,6.573159790039063,1729620445453.0
-1719999999894.239,0.2274444580078125,6.896456909179688,7.175192260742188,1729620445463.0
-1719999999894.229,0.1481903076171875,7.318148803710938,7.970126342773438,1729620445473.0
-1719999999894.219,0.063104248046875,7.396206665039063,6.384445190429688,1729620445483.0
-1719999999894.209,-0.3931304931640625,7.24173583984375,5.065985107421875,1729620445493.0
-1719999999894.199,-0.8231964111328126,7.331607055664063,6.4133056640625,1729620445503.0
-1719999999894.189,-0.6492858886718751,7.4187866210937505,7.267306518554688,1729620445513.0
-1719999999894.179,-0.2260986328125,7.133621215820313,7.392019653320313,1729620445523.0
-1719999999894.169,0.0405242919921875,6.921578979492188,6.318649291992188,1729620445533.0
-1719999999894.159,0.136077880859375,6.801052856445313,6.7054992675781255,1729620445543.0
-1719999999894.149,0.326287841796875,7.320840454101563,7.257586669921875,1729620445553.0
-1719999999894.1392,0.499151611328125,7.519424438476563,7.028646850585938,1729620445563.0
-1719999999894.1292,0.4677490234375,7.491909790039063,5.616278076171875,1729620445573.0
-1719999999894.1191,0.2118927001953125,7.377066040039063,5.332159423828125,1729620445583.0
-1719999999894.1091,-0.0602630615234375,7.4202819824218755,6.529495239257813,1729620445593.0
-1719999999894.099,-0.1818359375,7.342373657226563,7.4427124023437505,1729620445603.0
-1719999999894.089,-0.2959320068359375,7.04674072265625,7.099078369140625,1729620445613.0
-1719999999894.079,-0.3742889404296875,6.8071838378906255,6.33255615234375,1729620445623.0
-1719999999894.069,-0.3552978515625,7.096984863281251,6.783706665039063,1729620445633.0
-1719999999894.059,-0.212042236328125,7.349551391601563,7.407571411132813,1729620445643.0
-1719999999894.049,-0.2331268310546875,7.299456787109375,6.830062866210938,1729620445653.0
-1719999999894.039,-0.033795166015625,7.054067993164063,5.984286499023438,1729620445663.0
-1719999999894.029,0.2770904541015625,7.42716064453125,5.855386352539063,1729620445673.0
-1719999999894.019,0.6192291259765625,7.654754638671876,6.274536132812501,1729620445683.0
-1719999999894.009,0.8874969482421876,7.51329345703125,6.406277465820313,1729620445693.0
-1719999999893.999,0.70880126953125,7.085919189453126,6.34990234375,1729620445703.0
-1719999999893.989,0.23746337890625,6.824081420898438,6.8535400390625005,1729620445713.0
-1719999999893.979,-0.2549591064453125,7.290185546875,8.075997924804689,1729620445723.0
-1719999999893.969,-0.7861114501953126,7.643838500976563,7.376168823242188,1729620445733.0
-1719999999893.959,-1.3245910644531251,6.592449951171876,5.573062133789063,1729620445743.0
-1719999999893.949,-1.3455261230468751,7.140499877929688,5.384646606445313,1729620445753.0
-1719999999893.939,-0.5722747802734376,7.599127197265625,7.572659301757813,1729620445763.0
-1719999999893.928,0.495263671875,7.64189453125,7.118069458007813,1729620445774.0
-1719999999893.919,0.862225341796875,6.936083984375,6.663479614257813,1729620445783.0
-1719999999893.9102,0.8332153320312501,6.756042480468751,5.889630126953126,1729620445792.0
-1719999999893.9,0.8317199707031251,7.316802978515626,7.237698364257813,1729620445802.0
-1719999999893.89,0.8306732177734376,7.801300048828126,7.393066406250001,1729620445812.0
-1719999999893.8792,-0.00657958984375,7.373477172851563,5.6273437500000005,1729620445823.0
-1719999999893.87,-0.929815673828125,6.9866271972656255,5.4203857421875,1729620445832.0
-1719999999893.86,-1.2525146484375,7.160687255859376,7.119265747070313,1729620445842.0
-1719999999893.85,-1.0486968994140626,7.4038330078125005,8.168411254882812,1729620445852.0
-1719999999893.8372,-0.7185211181640625,7.051675415039063,7.014291381835938,1729620445865.0
-1719999999893.83,-0.3061004638671875,6.790435791015626,5.6961303710937505,1729620445872.0
-1719999999893.819,0.4487579345703125,7.2767272949218755,6.1656738281250005,1729620445883.0
-1719999999893.81,1.11075439453125,7.713970947265626,7.462152099609376,1729620445892.0
-1719999999893.8,1.11195068359375,7.278372192382813,6.917391967773438,1729620445902.0
-1719999999893.79,0.6443511962890626,7.002029418945313,5.775234985351563,1729620445912.0
-1719999999893.78,0.240155029296875,7.298260498046876,5.9294067382812505,1729620445922.0
-1719999999893.77,0.0669921875,7.577743530273438,6.831558227539063,1729620445932.0
-1719999999893.76,-0.4616180419921875,7.567575073242188,6.912307739257813,1729620445942.0
-1719999999893.75,-0.9226379394531252,6.922924804687501,6.230123901367188,1729620445952.0
-1719999999893.74,-0.9900787353515624,6.737350463867188,6.778173828125,1729620445962.0
-1719999999893.729,-0.6074157714843751,7.171752929687501,7.509255981445313,1729620445973.0
-1719999999893.72,-0.0414215087890625,7.274334716796876,7.46544189453125,1729620445982.0
-1719999999893.71,0.2842681884765625,7.271044921875,6.133074951171875,1729620445992.0
-1719999999893.7,0.6584075927734375,7.252951049804688,5.4374328613281255,1729620446002.0
-1719999999893.69,0.8015136718750001,7.571911621093751,6.562692260742188,1729620446012.0
-1719999999893.68,0.685772705078125,7.471871948242188,7.043151855468751,1729620446022.0
-1719999999893.67,0.200677490234375,7.1496215820312505,6.739593505859376,1729620446032.0
-1719999999893.6602,-0.1993316650390625,7.117321777343751,5.985931396484375,1729620446042.0
-1719999999893.65,-0.228192138671875,7.32188720703125,6.5140930175781255,1729620446052.0
-1719999999893.64,-0.51380615234375,7.3822998046875,7.069769287109375,1729620446062.0
-1719999999893.6292,-0.638519287109375,7.052572631835938,6.635815429687501,1729620446073.0
-1719999999893.62,-0.4508514404296875,6.707891845703125,6.8702880859375,1729620446082.0
-1719999999893.61,-0.0133087158203125,7.236801147460938,6.7219482421875005,1729620446092.0
-1719999999893.6,0.4092803955078125,7.380654907226563,7.0957885742187505,1729620446102.0
-1719999999893.59,0.5396759033203126,7.6924377441406255,6.111541748046875,1729620446112.0
-1719999999893.58,0.4254302978515625,7.703503417968751,5.93060302734375,1729620446122.0
-1719999999893.57,0.2779876708984375,6.928457641601563,5.989520263671875,1729620446132.0
-1719999999893.56,-0.134283447265625,6.9148498535156255,7.04075927734375,1729620446142.0
-1719999999893.55,-0.3461761474609375,7.151416015625,8.127886962890626,1729620446152.0
-1719999999893.54,-0.271856689453125,7.102816772460938,6.760678100585938,1729620446162.0
-1719999999893.529,-0.382513427734375,7.267904663085938,6.524710083007813,1729620446173.0
-1719999999893.52,-0.70880126953125,7.349102783203126,6.0281005859375005,1729620446182.0
-1719999999893.511,-0.5621063232421876,7.469180297851563,6.420932006835938,1729620446191.0
-1719999999893.501,0.0203369140625,7.505816650390625,6.689498901367188,1729620446201.0
-1719999999893.491,0.6352294921875,7.252203369140625,5.825778198242188,1729620446211.0
-1719999999893.481,0.6904083251953126,7.060049438476563,7.047488403320313,1729620446221.0
-1719999999893.471,0.42528076171875,6.878213500976563,7.448394775390626,1729620446231.0
-1719999999893.461,0.2109954833984375,7.200912475585938,7.482788085937501,1729620446241.0
-1719999999893.451,0.0593658447265625,7.408169555664063,6.416744995117188,1729620446251.0
-1719999999893.4412,-0.181536865234375,7.541705322265625,5.0042266845703125,1729620446261.0
-1719999999893.429,-0.6036773681640626,7.49534912109375,6.063092041015626,1729620446273.0
-1719999999893.4211,-0.586181640625,7.251904296875001,6.9537292480468755,1729620446281.0
-1719999999893.4111,-0.3381011962890625,6.929354858398438,7.662231445312501,1729620446291.0
-1719999999893.4011,-0.068487548828125,7.039263916015625,6.9985900878906255,1729620446301.0
-1719999999893.391,0.116937255859375,6.751556396484376,6.693984985351563,1729620446311.0
-1719999999893.381,0.2008270263671875,7.204052734375001,6.8101745605468755,1729620446321.0
-1719999999893.371,0.211444091796875,7.533779907226563,6.831707763671876,1729620446331.0
-1719999999893.361,0.347222900390625,7.35,6.076849365234375,1729620446341.0
-1719999999893.351,0.15850830078125,7.446151733398438,5.8142639160156255,1729620446351.0
-1719999999893.341,-0.000299072265625,7.352542114257813,6.37083740234375,1729620446361.0
-1719999999893.329,0.0010467529296875,7.456021118164063,6.896008300781251,1729620446373.0
-1719999999893.321,-0.0155517578125,7.127639770507813,6.889578247070313,1729620446381.0
-1719999999893.311,-0.0183929443359375,7.139602661132813,6.240890502929688,1729620446391.0
-1719999999893.301,-0.0629547119140625,7.105209350585938,6.865054321289063,1729620446401.0
-1719999999893.291,-0.119927978515625,7.115975952148438,7.072909545898438,1729620446411.0
-1719999999893.281,-0.3730926513671875,7.135714721679688,7.331158447265626,1729620446421.0
-1719999999893.271,-0.2995208740234375,7.108349609375001,6.529345703125,1729620446431.0
-1719999999893.261,-0.2112945556640625,7.299008178710938,6.081036376953126,1729620446441.0
-1719999999893.251,0.184228515625,7.77647705078125,5.998342895507813,1729620446451.0
-1719999999893.241,0.4379913330078125,7.3607666015625,6.335397338867188,1729620446461.0
-1719999999893.229,0.4098785400390625,7.168762207031251,6.0958404541015625,1729620446473.0
-1719999999893.221,0.5867797851562501,6.889727783203125,7.134817504882813,1729620446481.0
-1719999999893.211,0.4844970703125,7.216015625000001,7.274484252929688,1729620446491.0
-1719999999893.201,0.2181732177734375,7.155154418945313,7.058554077148438,1729620446501.0
-1719999999893.1912,-0.3778778076171875,7.858123779296876,6.668563842773438,1729620446511.0
-1719999999893.1812,-1.04376220703125,7.35538330078125,5.750112915039063,1729620446521.0
-1719999999893.172,-1.1062683105468751,6.605908203125001,5.9119110107421875,1729620446530.0
-1719999999893.162,-0.9410308837890624,7.401440429687501,7.528546142578126,1729620446540.0
-1719999999893.152,-0.1018341064453125,7.159939575195313,7.363906860351563,1729620446550.0
-1719999999893.142,0.7274932861328125,7.156948852539063,6.6471801757812505,1729620446560.0
-1719999999893.131,0.8273834228515625,7.1750427246093755,6.5245605468750005,1729620446571.0
-1719999999893.122,0.6543701171875,7.245324707031251,6.322238159179688,1729620446580.0
-1719999999893.112,0.49287109375,7.699465942382813,6.967486572265625,1729620446590.0
-1719999999893.102,0.3361572265625,7.453628540039063,5.980847167968751,1729620446600.0
-1719999999893.092,-0.3285308837890625,7.20225830078125,5.534332275390625,1729620446610.0
-1719999999893.082,-0.8154205322265625,7.005618286132813,7.114779663085938,1729620446620.0
-1719999999893.072,-0.9652557373046876,7.117172241210938,8.038912963867189,1729620446630.0
-1719999999893.062,-0.7983734130859376,7.104611206054688,7.441815185546876,1729620446640.0
-1719999999893.052,-0.450103759765625,6.952832031250001,5.982342529296876,1729620446650.0
-1719999999893.042,0.0297576904296875,7.329962158203125,5.640203857421875,1729620446660.0
-1719999999893.032,0.6316406250000001,7.753598022460938,6.820791625976563,1729620446670.0
-1719999999893.022,0.9304138183593752,7.291680908203125,6.894363403320313,1729620446680.0
-1719999999893.012,0.8127288818359376,7.1167236328125005,6.349304199218751,1729620446690.0
-1719999999893.002,0.478515625,7.036273193359375,6.597235107421875,1729620446700.0
-1719999999892.992,0.0973480224609375,7.153060913085938,6.638806152343751,1729620446710.0
-1719999999892.982,-0.356195068359375,7.3787109375,7.451983642578125,1729620446720.0
-1719999999892.972,-0.778485107421875,7.338485717773438,6.368743896484376,1729620446730.0
-1719999999892.9622,-0.9332550048828124,7.057357788085938,5.898751831054688,1729620446740.0
-1719999999892.952,-0.6563140869140626,7.300354003906251,6.5215698242187505,1729620446750.0
-1719999999892.942,-0.12022705078125,7.4181884765625,6.979898071289063,1729620446760.0
-1719999999892.932,0.3889434814453125,7.287942504882813,6.890774536132813,1729620446770.0
-1719999999892.922,0.7714569091796876,7.0616943359375,6.209487915039063,1729620446780.0
-1719999999892.912,0.8184112548828125,7.07425537109375,6.706097412109376,1729620446790.0
-1719999999892.902,0.5127593994140626,7.343569946289063,7.105209350585938,1729620446800.0
-1719999999892.892,0.16748046875,7.336691284179688,6.695779418945313,1729620446810.0
-1719999999892.882,-0.29368896484375,7.410562133789063,5.955874633789063,1729620446820.0
-1719999999892.872,-0.587078857421875,7.2411376953125,5.9612579345703125,1729620446830.0
-1719999999892.862,-0.73511962890625,7.287643432617188,6.902288818359375,1729620446840.0
-1719999999892.852,-0.6820343017578125,7.102667236328125,7.087115478515625,1729620446850.0
-1719999999892.842,-0.02691650390625,6.957766723632813,6.627590942382813,1729620446860.0
-1719999999892.832,0.4640106201171875,6.973617553710938,6.811520385742188,1729620446870.0
-1719999999892.822,0.6042755126953125,7.273587036132813,6.809725952148438,1729620446880.0
-1719999999892.812,0.5193389892578125,7.5877624511718755,6.917092895507813,1729620446890.0
-1719999999892.802,0.493768310546875,7.969378662109375,6.059652709960938,1729620446900.0
-1719999999892.793,0.1626953125,7.298110961914063,5.543154907226563,1729620446909.0
-1719999999892.782,-0.5241241455078125,6.691143798828126,6.067877197265625,1729620446920.0
-1719999999892.773,-0.9586761474609377,7.006964111328125,8.107400512695314,1729620446929.0
-1719999999892.763,-0.413916015625,7.123452758789063,7.871582031250001,1729620446939.0
-1719999999892.753,0.00538330078125,7.314260864257813,6.785650634765625,1729620446949.0
-1719999999892.7432,-0.326885986328125,6.976010131835938,6.000735473632813,1729620446959.0
-1719999999892.7332,-0.5109649658203126,7.438674926757813,5.9134063720703125,1729620446969.0
-1719999999892.7231,0.2136871337890625,7.781262207031251,7.018777465820313,1729620446979.0
-1719999999892.7131,0.9646575927734377,7.651016235351563,5.718710327148438,1729620446989.0
-1719999999892.7031,0.7005767822265625,7.1071533203125,5.937033081054688,1729620446999.0
-1719999999892.693,0.14774169921875,6.581683349609375,7.35777587890625,1729620447009.0
-1719999999892.683,-0.13458251953125,7.082778930664063,8.371929931640626,1729620447019.0
-1719999999892.673,-0.1431060791015625,7.383047485351563,7.413851928710938,1729620447029.0
-1719999999892.663,-0.3457275390625,7.440917968750001,4.8935699462890625,1729620447039.0
-1719999999892.653,-0.6616973876953125,7.317550659179688,5.091256713867188,1729620447049.0
-1719999999892.643,-0.6222198486328125,7.599276733398438,6.800454711914063,1729620447059.0
-1719999999892.633,-0.130694580078125,7.182669067382813,8.037417602539064,1729620447069.0
-1719999999892.623,0.2851654052734375,6.854287719726563,7.04434814453125,1729620447079.0
-1719999999892.613,0.3007171630859375,6.788342285156251,6.234759521484375,1729620447089.0
-1719999999892.603,0.471337890625,7.046591186523438,6.653311157226563,1729620447099.0
-1719999999892.593,0.400457763671875,7.592846679687501,7.494900512695313,1729620447109.0
-1719999999892.583,0.1078155517578125,7.619912719726563,6.312667846679688,1729620447119.0
-1719999999892.573,-0.13577880859375,7.012646484375001,5.3731323242187505,1729620447129.0
-1719999999892.563,-0.4158599853515625,7.350897216796875,6.033633422851563,1729620447139.0
-1719999999892.553,-0.3098388671875,7.4744140625,7.4083190917968755,1729620447149.0
-1719999999892.543,-0.1281524658203125,7.482489013671875,7.124349975585938,1729620447159.0
-1719999999892.533,0.0880767822265625,6.851446533203125,6.003875732421875,1729620447169.0
-1719999999892.523,0.12142333984375,6.912905883789063,6.363510131835938,1729620447179.0
-1719999999892.513,0.11544189453125,7.216464233398438,7.6718017578125,1729620447189.0
-1719999999892.503,0.014654541015625,7.236053466796876,7.648025512695313,1729620447199.0
-1719999999892.4932,-0.1239654541015625,7.308279418945313,5.981146240234375,1729620447209.0
-1719999999892.4832,0.027215576171875,7.254296875,5.29656982421875,1729620447219.0
-1719999999892.4731,-0.0405242919921875,7.6326232910156255,6.209487915039063,1729620447229.0
-1719999999892.4631,0.018841552734375,7.451385498046876,7.096087646484375,1729620447239.0
-1719999999892.4531,0.2723052978515625,7.1959777832031255,6.467288208007813,1729620447249.0
-1719999999892.444,0.53055419921875,6.872680664062501,6.187506103515625,1729620447258.0
-1719999999892.433,0.4532440185546875,6.977206420898438,7.046890258789063,1729620447269.0
-1719999999892.424,-0.035589599609375,7.339981079101563,8.026800537109375,1729620447278.0
-1719999999892.414,-0.3569427490234375,7.686157226562501,6.919784545898438,1729620447288.0
-1719999999892.404,-0.68487548828125,7.2856994628906255,5.4060302734375005,1729620447298.0
-1719999999892.394,-0.7609893798828126,6.8580261230468755,5.335897827148438,1729620447308.0
-1719999999892.384,-0.8596832275390626,7.328466796875,7.611239624023438,1729620447318.0
-1719999999892.374,-0.1807891845703125,7.408468627929688,7.629782104492188,1729620447328.0
-1719999999892.364,0.7556060791015625,7.068423461914063,6.659591674804688,1729620447338.0
-1719999999892.354,0.780279541015625,7.042404174804688,6.194235229492188,1729620447348.0
-1719999999892.344,0.3887939453125,7.163827514648438,6.542205810546876,1729620447358.0
-1719999999892.334,0.222210693359375,7.655651855468751,7.263568115234375,1729620447368.0
-1719999999892.324,0.28890380859375,7.461553955078125,5.9937072753906255,1729620447378.0
-1719999999892.314,-0.0420196533203125,7.328317260742188,5.286102294921875,1729620447388.0
-1719999999892.304,-0.7271942138671875,7.006515502929688,7.131527709960938,1729620447398.0
-1719999999892.294,-1.0654449462890625,7.028646850585938,8.033230590820313,1729620447408.0
-1719999999892.284,-0.76981201171875,7.085769653320313,7.593594360351563,1729620447418.0
-1719999999892.274,-0.151629638671875,7.100723266601563,5.905630493164063,1729620447428.0
-1719999999892.2642,0.144451904296875,7.390673828125,5.3985534667968755,1729620447438.0
-1719999999892.2542,0.434552001953125,7.571163940429688,6.791183471679688,1729620447448.0
-1719999999892.244,0.7647277832031251,7.267605590820313,7.177883911132813,1729620447458.0
-1719999999892.234,0.7925415039062501,7.272988891601563,6.606356811523438,1729620447468.0
-1719999999892.224,0.5634521484375,7.095339965820313,6.164328002929688,1729620447478.0
-1719999999892.214,0.0662445068359375,7.069320678710938,6.361267089843751,1729620447488.0
-1719999999892.204,-0.4912261962890625,7.323532104492188,7.538714599609375,1729620447498.0
-1719999999892.194,-0.7645782470703125,7.313214111328126,6.9597106933593755,1729620447508.0
-1719999999892.184,-0.814373779296875,7.039263916015625,6.084475708007813,1729620447518.0
-1719999999892.174,-0.7261474609375,7.135714721679688,6.196029663085938,1729620447528.0
-1719999999892.164,-0.2866607666015625,7.415048217773438,6.920382690429688,1729620447538.0
-1719999999892.154,0.2959320068359375,7.378561401367188,7.265960693359376,1729620447548.0
-1719999999892.144,0.768017578125,7.2258850097656255,5.99400634765625,1729620447558.0
-1719999999892.134,1.04256591796875,7.249661254882813,6.066082763671876,1729620447568.0
-1719999999892.124,0.799420166015625,7.418038940429688,6.648376464843751,1729620447578.0
-1719999999892.114,0.3461761474609375,7.251904296875001,7.112088012695313,1729620447588.0
-1719999999892.104,-0.219818115234375,7.199716186523438,6.865203857421876,1729620447598.0
-1719999999892.094,-0.7008758544921876,7.0856201171875,5.9946044921875,1729620447608.0
-1719999999892.085,-0.8166168212890625,7.303344726562501,6.301303100585938,1729620447617.0
-1719999999892.075,-0.6305938720703126,7.315457153320313,6.839334106445313,1729620447627.0
-1719999999892.064,-0.35469970703125,7.021469116210938,7.050778198242188,1729620447638.0
-1719999999892.054,-0.094805908203125,6.9447570800781255,7.141546630859375,1729620447648.0
-1719999999892.045,0.4438232421875,7.160687255859376,6.563888549804688,1729620447657.0
-1719999999892.0352,0.7215118408203125,7.732064819335938,6.498391723632813,1729620447667.0
-1719999999892.0251,0.8163177490234376,7.781561279296875,6.095989990234376,1729620447677.0
-1719999999892.0151,0.3742889404296875,7.15440673828125,5.8162078857421875,1729620447687.0
-1719999999892.0051,-0.2606414794921875,6.879559326171876,6.631179809570313,1729620447697.0
-1719999999891.995,-0.4074859619140625,7.123602294921875,7.770944213867188,1729620447707.0
-1719999999891.984,-0.411224365234375,7.231716918945313,7.221548461914063,1729620447718.0
-1719999999891.975,-0.5145538330078125,7.014590454101563,6.582431030273438,1729620447727.0
-1719999999891.965,-0.8824127197265625,7.243081665039063,6.235357666015625,1729620447737.0
-1719999999891.955,-0.4568328857421875,7.41759033203125,6.601272583007813,1729620447747.0
-1719999999891.945,0.1386199951171875,7.718157958984375,6.65555419921875,1729620447757.0
-1719999999891.935,0.69803466796875,7.296316528320313,5.73740234375,1729620447767.0
-1719999999891.925,0.6853240966796875,7.031039428710938,6.362762451171876,1729620447777.0
-1719999999891.915,0.624761962890625,7.055114746093751,7.259530639648438,1729620447787.0
-1719999999891.905,0.5408721923828126,7.297064208984375,7.818048095703125,1729620447797.0
-1719999999891.895,0.036785888671875,7.203604125976563,6.644937133789063,1729620447807.0
-1719999999891.885,-0.4652069091796875,7.29796142578125,5.1537628173828125,1729620447817.0
-1719999999891.875,-0.8027099609375,7.371234130859375,6.376220703125001,1729620447827.0
-1719999999891.865,-0.7360168457031251,7.60301513671875,6.835296630859376,1729620447837.0
-1719999999891.855,-0.4924224853515625,6.959411621093751,7.270297241210938,1729620447847.0
-1719999999891.845,-0.14415283203125,6.9576171875,6.446054077148438,1729620447857.0
-1719999999891.835,0.244940185546875,6.8744750976562505,7.105209350585938,1729620447867.0
-1719999999891.825,0.57960205078125,7.270895385742188,7.068423461914063,1729620447877.0
-1719999999891.815,0.5941070556640625,7.395309448242188,6.84337158203125,1729620447887.0
-1719999999891.805,0.4532440185546875,7.280615234375,5.953930664062501,1729620447897.0
-1719999999891.795,0.0919647216796875,7.435385131835938,5.725738525390625,1729620447907.0
-1719999999891.7852,-0.0955535888671875,7.488470458984375,6.685162353515626,1729620447917.0
-1719999999891.7751,-0.315521240234375,7.452282714843751,6.6576477050781255,1729620447927.0
-1719999999891.7651,-0.361578369140625,7.100424194335938,6.544448852539063,1729620447937.0
-1719999999891.7551,-0.262884521484375,7.036721801757813,6.724041748046876,1729620447947.0
-1719999999891.745,-0.2429962158203125,6.978103637695313,7.144985961914063,1729620447957.0
-1719999999891.735,-0.069384765625,7.224240112304688,7.282858276367188,1729620447967.0
-1719999999891.725,0.0360382080078125,7.129135131835938,6.7398925781250005,1729620447977.0
-1719999999891.715,0.14774169921875,7.303045654296875,5.906378173828125,1729620447987.0
-1719999999891.705,0.1293487548828125,7.293923950195313,6.567776489257813,1729620447997.0
-1719999999891.696,0.221014404296875,7.599575805664063,6.303695678710938,1729620448006.0
-1719999999891.686,0.253314208984375,7.25010986328125,6.335247802734376,1729620448016.0
-1719999999891.676,0.441729736328125,7.341027832031251,5.872732543945313,1729620448026.0
-1719999999891.666,0.4605712890625,7.032086181640626,6.900643920898438,1729620448036.0
-1719999999891.656,0.015252685546875,7.087863159179688,7.329064941406251,1729620448046.0
-1719999999891.646,-0.390887451171875,7.275381469726563,7.736401367187501,1729620448056.0
-1719999999891.636,-0.50184326171875,7.597930908203126,6.534130859375001,1729620448066.0
-1719999999891.626,-0.732427978515625,7.009506225585938,5.358328247070313,1729620448076.0
-1719999999891.616,-0.8390472412109375,7.090106201171875,6.192739868164063,1729620448086.0
-1719999999891.606,-0.471636962890625,7.365402221679688,7.486077880859376,1729620448096.0
-1719999999891.596,0.5565734863281251,7.371234130859375,7.079190063476563,1729620448106.0
-1719999999891.586,0.9989013671875,7.121658325195313,6.609497070312501,1729620448116.0
-1719999999891.576,0.5390777587890625,6.917242431640625,6.3391357421875005,1729620448126.0
-1719999999891.5662,0.1614990234375,7.246072387695313,6.995150756835938,1729620448136.0
-1719999999891.5562,0.2666229248046875,7.773785400390626,6.721051025390626,1729620448146.0
-1719999999891.546,0.100189208984375,7.471722412109376,5.833404541015625,1729620448156.0
-1719999999891.536,-0.7805786132812501,7.088012695312501,5.768505859375001,1729620448166.0
-1719999999891.526,-1.1563629150390626,6.883297729492188,7.352093505859376,1729620448176.0
-1719999999891.516,-0.74588623046875,7.240390014648438,8.097531127929688,1729620448186.0
-1719999999891.506,-0.0964508056640625,7.247119140625,6.863558959960938,1729620448196.0
-1719999999891.496,0.15133056640625,6.99649658203125,5.7155700683593755,1729620448206.0
-1719999999891.486,0.32598876953125,7.240689086914063,5.8580780029296875,1729620448216.0
-1719999999891.476,0.6925018310546875,7.651016235351563,7.330560302734376,1729620448226.0
-1719999999891.466,0.8964691162109376,7.3464111328125,6.991860961914063,1729620448236.0
-1719999999891.456,0.518890380859375,7.150518798828125,5.8685455322265625,1729620448246.0
-1719999999891.446,-0.0656463623046875,7.142892456054688,6.073110961914063,1729620448256.0
-1719999999891.436,-0.3004180908203125,7.1989685058593755,6.931149291992188,1729620448266.0
-1719999999891.426,-0.5531341552734376,7.393515014648438,7.645333862304688,1729620448276.0
-1719999999891.416,-0.7355682373046876,7.114031982421875,6.500784301757813,1729620448286.0
-1719999999891.406,-0.7046142578125001,6.810324096679688,6.129037475585938,1729620448296.0
-1719999999891.396,-0.4222900390625,7.169509887695313,6.9372802734375005,1729620448306.0
-1719999999891.386,0.1140960693359375,7.596585083007813,7.240689086914063,1729620448316.0
-1719999999891.376,0.6165374755859375,7.377066040039063,6.382052612304688,1729620448326.0
-1719999999891.366,0.8196075439453125,7.373178100585938,5.139108276367188,1729620448336.0
-1719999999891.357,0.7995697021484376,7.300503540039063,6.411511230468751,1729620448345.0
-1719999999891.346,0.45638427734375,7.325775146484376,7.511199951171876,1729620448356.0
-1719999999891.336,-0.1149932861328125,7.102368164062501,7.239642333984375,1729620448366.0
-1719999999891.326,-0.4607208251953125,7.080087280273438,6.229376220703125,1729620448376.0
-1719999999891.3171,-0.5196380615234375,7.238894653320313,5.966192626953125,1729620448385.0
-1719999999891.3062,-0.7119415283203125,7.426712036132813,6.931448364257813,1729620448396.0
-1719999999891.297,-0.6930999755859375,7.098330688476563,7.0613952636718755,1729620448405.0
-1719999999891.287,-0.2606414794921875,6.923971557617188,6.590805053710938,1729620448415.0
-1719999999891.277,0.3835601806640625,7.066479492187501,6.478054809570313,1729620448425.0
-1719999999891.267,0.8945251464843751,7.479199218750001,6.637908935546876,1729620448435.0
-1719999999891.257,0.80689697265625,7.676586914062501,6.731967163085938,1729620448445.0
-1719999999891.247,0.5408721923828126,7.65684814453125,6.177487182617188,1729620448455.0
-1719999999891.237,0.1568634033203125,7.213772583007813,6.010006713867188,1729620448465.0
-1719999999891.227,-0.3551483154296875,6.667068481445313,6.459362792968751,1729620448475.0
-1719999999891.217,-0.9102264404296876,7.203155517578126,8.008258056640626,1729620448485.0
-1719999999891.207,-0.7705596923828125,7.066629028320313,7.3679443359375005,1729620448495.0
-1719999999891.197,-0.4412811279296875,7.287493896484375,6.348406982421875,1729620448505.0
-1719999999891.187,-0.471636962890625,7.226483154296876,6.213973999023438,1729620448515.0
-1719999999891.177,-0.303857421875,7.39127197265625,6.116925048828126,1729620448525.0
-1719999999891.167,0.215631103515625,7.518377685546875,7.182968139648438,1729620448535.0
-1719999999891.157,0.96002197265625,7.414001464843751,5.899649047851563,1729620448545.0
-1719999999891.147,0.96241455078125,7.171453857421875,6.440670776367188,1729620448555.0
-1719999999891.137,0.4462158203125,6.877914428710938,7.050628662109376,1729620448565.0
-1719999999891.127,-0.046954345703125,7.198818969726563,7.526602172851563,1729620448575.0
-1719999999891.117,-0.222210693359375,7.436282348632813,7.066329956054688,1729620448585.0
-1719999999891.107,-0.3751861572265625,7.416992187500001,5.144940185546876,1729620448595.0
-1719999999891.097,-0.7585968017578125,7.339532470703125,5.817852783203126,1729620448605.0
-1719999999891.0872,-0.7807281494140625,7.301101684570313,6.911560058593751,1729620448615.0
-1719999999891.0771,-0.348419189453125,7.009506225585938,7.881002807617188,1729620448625.0
-1719999999891.0671,0.1188812255859375,7.032684326171876,7.069171142578125,1729620448635.0
-1719999999891.0571,0.3337646484375,6.871185302734376,6.396408081054688,1729620448645.0
-1719999999891.047,0.3742889404296875,7.03836669921875,6.586917114257813,1729620448655.0
-1719999999891.037,0.346026611328125,7.49893798828125,7.098330688476563,1729620448665.0
-1719999999891.027,0.3623260498046875,7.510302734375,6.60770263671875,1729620448675.0
-1719999999891.017,0.16209716796875,7.327270507812501,5.550183105468751,1729620448685.0
-1719999999891.007,-0.2092010498046875,7.416543579101563,5.8091796875,1729620448695.0
-1719999999890.998,-0.135479736328125,7.511648559570313,6.6770874023437505,1729620448704.0
-1719999999890.987,-0.0201873779296875,7.479946899414063,7.0628906250000005,1729620448715.0
-1719999999890.978,0.0572723388671875,7.012646484375001,6.389828491210938,1729620448724.0
-1719999999890.967,-0.133984375,6.734060668945313,6.8056884765625005,1729620448735.0
-1719999999890.957,-0.2675201416015625,6.930850219726563,7.5623413085937505,1729620448745.0
-1719999999890.948,-0.213836669921875,7.220651245117188,7.786196899414063,1729620448754.0
-1719999999890.937,-0.2106964111328125,7.342074584960938,6.324481201171875,1729620448765.0
-1719999999890.928,-0.16748046875,7.307830810546876,5.160491943359375,1729620448774.0
-1719999999890.918,-0.012261962890625,7.6580444335937505,5.875274658203125,1729620448784.0
-1719999999890.907,0.43365478515625,7.626791381835938,6.888980102539063,1729620448795.0
-1719999999890.898,0.4774688720703125,7.132574462890625,6.770846557617188,1729620448804.0
-1719999999890.888,0.5624053955078125,6.950289916992188,6.076849365234375,1729620448814.0
-1719999999890.878,0.6639404296875,7.02042236328125,6.801651000976563,1729620448824.0
-1719999999890.8682,0.413616943359375,7.124050903320313,7.255792236328125,1729620448834.0
-1719999999890.8582,-0.2859130859375,7.474862670898438,7.67838134765625,1729620448844.0
-1719999999890.848,-0.9256286621093752,7.533480834960938,6.356033325195313,1729620448854.0
-1719999999890.8372,-1.2049621582031251,7.106405639648438,5.3421783447265625,1729620448865.0
-1719999999890.828,-1.0678375244140623,7.077395629882813,6.4156982421875,1729620448874.0
-1719999999890.818,-0.6765014648437501,7.350448608398438,7.409963989257813,1729620448884.0
-1719999999890.808,0.2669219970703125,7.22977294921875,7.202407836914063,1729620448894.0
-1719999999890.798,1.151727294921875,7.066180419921875,6.342575073242188,1729620448904.0
-1719999999890.788,1.198681640625,7.096984863281251,6.676339721679688,1729620448914.0
-1719999999890.778,0.6449493408203125,7.337738037109376,6.833502197265625,1729620448924.0
-1719999999890.768,0.366961669921875,7.643389892578125,6.5933471679687505,1729620448934.0
-1719999999890.758,0.0626556396484375,7.410263061523438,5.8561340332031255,1729620448944.0
-1719999999890.748,-0.6605010986328126,7.3200927734375005,5.417095947265626,1729620448954.0
-1719999999890.737,-1.3313201904296876,6.93309326171875,7.708438110351563,1729620448965.0
-1719999999890.728,-1.332366943359375,7.036273193359375,7.910910034179688,1729620448974.0
-1719999999890.718,-0.70880126953125,7.064834594726563,7.294223022460938,1729620448984.0
-1719999999890.708,0.0139068603515625,7.07724609375,5.9727722167968755,1729620448994.0
-1719999999890.698,0.48629150390625,7.350448608398438,5.656951904296875,1729620449004.0
-1719999999890.688,0.9200958251953124,7.696624755859376,6.945504760742188,1729620449014.0
-1719999999890.678,1.280328369140625,7.287643432617188,6.6711059570312505,1729620449024.0
-1719999999890.668,1.027313232421875,7.262969970703126,6.289340209960938,1729620449034.0
-1719999999890.658,0.3841583251953125,7.278820800781251,6.226086425781251,1729620449044.0
-1719999999890.648,-0.2432952880859375,7.172201538085938,6.635665893554688,1729620449054.0
-1719999999890.637,-0.8121307373046875,7.303494262695313,7.262969970703126,1729620449065.0
-1719999999890.628,-1.0947540283203123,7.139752197265626,6.5754028320312505,1729620449074.0
-1719999999890.6191,-1.053631591796875,6.920382690429688,6.751705932617188,1729620449083.0
-1719999999890.6082,-0.8747863769531251,6.999636840820313,7.072760009765625,1729620449094.0
-1719999999890.599,-0.3084930419921875,7.201211547851563,7.031188964843751,1729620449103.0
-1719999999890.589,0.5341430664062501,7.257736206054688,6.851446533203125,1729620449113.0
-1719999999890.579,1.0442108154296876,7.616622924804688,5.581585693359376,1729620449123.0
-1719999999890.569,1.3175628662109375,7.571762084960938,5.825628662109375,1729620449133.0
-1719999999890.559,1.0534820556640625,7.469778442382813,6.350201416015626,1729620449143.0
-1719999999890.549,0.4127197265625,7.144985961914063,6.952383422851563,1729620449153.0
-1719999999890.537,-0.2525665283203125,7.1570983886718755,7.092947387695313,1729620449165.0
-1719999999890.528,-0.737213134765625,7.019973754882813,6.5807861328125,1729620449174.0
-1719999999890.519,-1.0178924560546876,7.306036376953125,6.501980590820313,1729620449183.0
-1719999999890.509,-0.9739288330078124,7.163677978515626,6.694732666015626,1729620449193.0
-1719999999890.499,-0.656463623046875,7.096386718750001,6.592599487304688,1729620449203.0
-1719999999890.489,-0.1419097900390625,6.7877441406250005,7.14842529296875,1729620449213.0
-1719999999890.479,0.60950927734375,7.378561401367188,6.804342651367188,1729620449223.0
-1719999999890.469,1.0842864990234375,7.473516845703125,6.584973144531251,1729620449233.0
-1719999999890.459,1.206756591796875,7.929153442382813,5.72783203125,1729620449243.0
-1719999999890.449,0.721661376953125,7.762271118164063,6.169412231445313,1729620449253.0
-1719999999890.437,-0.0456085205078125,6.56822509765625,6.0266052246093755,1729620449265.0
-1719999999890.429,-0.87269287109375,6.919186401367188,7.739990234375001,1729620449273.0
-1719999999890.419,-1.10477294921875,6.960757446289063,7.958163452148438,1729620449283.0
-1719999999890.409,-0.7902984619140626,7.2124267578125005,6.725238037109375,1729620449293.0
-1719999999890.399,-0.8620758056640626,7.336990356445313,6.5649353027343755,1729620449303.0
-1719999999890.3892,-0.694744873046875,7.268203735351563,5.345916748046875,1729620449313.0
-1719999999890.3792,-0.0333465576171875,7.524508666992188,6.962252807617188,1729620449323.0
-1719999999890.3691,1.1106048583984376,7.648324584960938,6.304293823242188,1729620449333.0
-1719999999890.3591,1.4530426025390626,7.17593994140625,6.426614379882813,1729620449343.0
-1719999999890.349,0.9138153076171877,6.839483642578125,6.8026977539062505,1729620449353.0
-1719999999890.3372,0.38759765625,6.925018310546876,7.346261596679688,1729620449365.0
-1719999999890.329,-0.035888671875,7.512545776367188,7.541555786132813,1729620449373.0
-1719999999890.319,-0.526068115234375,7.466339111328126,5.634671020507813,1729620449383.0
-1719999999890.309,-1.200775146484375,7.313662719726563,5.3372436523437505,1729620449393.0
-1719999999890.299,-1.313824462890625,7.258483886718751,6.417642211914063,1729620449403.0
-1719999999890.289,-0.757550048828125,7.1840148925781255,7.813113403320313,1729620449413.0
-1719999999890.279,-0.0500946044921875,7.076049804687501,7.478152465820313,1729620449423.0
-1719999999890.269,0.47791748046875,6.746472167968751,6.4662414550781255,1729620449433.0
-1719999999890.26,0.7597930908203125,6.899298095703125,6.416445922851563,1729620449442.0
-1719999999890.249,0.9676483154296877,7.514938354492188,7.159191894531251,1729620449453.0
-1719999999890.24,0.7422973632812501,7.6834655761718755,6.856381225585938,1729620449462.0
-1719999999890.23,0.2681182861328125,7.356280517578125,5.3092803955078125,1729620449472.0
-1719999999890.22,-0.2543609619140625,7.415048217773438,5.42218017578125,1729620449482.0
-1719999999890.21,-0.4646087646484375,7.504769897460938,6.64598388671875,1729620449492.0
-1719999999890.2,-0.5468536376953126,7.448693847656251,7.4660400390625,1729620449502.0
-1719999999890.19,-0.5001983642578125,6.852194213867188,6.837689208984376,1729620449512.0
-1719999999890.18,-0.3243438720703125,6.706845092773438,6.519924926757813,1729620449522.0
-1719999999890.17,-0.1152923583984375,7.023861694335938,7.507012939453125,1729620449532.0
-1719999999890.1602,0.1658355712890625,7.279867553710938,7.443460083007813,1729620449542.0
-1719999999890.15,0.1335357666015625,7.376019287109376,6.495849609375001,1729620449552.0
-1719999999890.14,0.260791015625,7.293026733398438,5.248269653320313,1729620449562.0
-1719999999890.13,0.354400634765625,7.600173950195313,5.937033081054688,1729620449572.0
-1719999999890.12,0.36845703125,7.686157226562501,6.737051391601563,1729620449582.0
-1719999999890.11,0.2980255126953125,7.250408935546876,6.3451171875000005,1729620449592.0
-1719999999890.1,0.29727783203125,7.098629760742188,6.155355834960938,1729620449602.0
-1719999999890.09,0.3419891357421875,6.637908935546876,7.080087280273438,1729620449612.0
-1719999999890.08,-0.203070068359375,7.185958862304688,7.9556213378906255,1729620449622.0
-1719999999890.07,-0.643902587890625,7.476208496093751,7.962649536132813,1729620449632.0
-1719999999890.06,-0.8578887939453126,7.524060058593751,5.658148193359375,1729620449642.0
-1719999999890.05,-0.7493255615234375,6.918289184570313,4.5989837646484375,1729620449652.0
-1719999999890.04,-0.5803497314453125,7.468283081054688,6.568673706054688,1729620449662.0
-1719999999890.03,-0.1072174072265625,7.448843383789063,8.218057250976564,1729620449672.0
-1719999999890.02,0.7218109130859376,7.116873168945313,6.9402709960937505,1729620449682.0
-1719999999890.01,1.0349395751953123,6.7383972167968755,6.429754638671875,1729620449692.0
-1719999999890.0,0.6543701171875,7.193734741210938,6.417343139648438,1729620449702.0
-1719999999889.99,0.11962890625,7.566079711914063,7.383047485351563,1729620449712.0
-1719999999889.98,-0.0928619384765625,7.643389892578125,6.359173583984376,1729620449722.0
-1719999999889.97,-0.4175048828125,7.346560668945313,4.95323486328125,1729620449732.0
-1719999999889.96,-0.7050628662109375,7.1490234375,6.214572143554688,1729620449742.0
-1719999999889.95,-0.9368438720703126,7.035226440429688,8.0474365234375,1729620449752.0
-1719999999889.94,-0.6944458007812501,7.007711791992188,8.130877685546876,1729620449762.0
-1719999999889.93,-0.12022705078125,6.924270629882813,6.800305175781251,1729620449772.0
-1719999999889.92,0.378924560546875,7.0763488769531255,5.4194885253906255,1729620449782.0
-1719999999889.9102,0.5689849853515625,7.732513427734376,6.191842651367188,1729620449792.0
-1719999999889.9011,0.664837646484375,7.547537231445313,7.141247558593751,1729620449801.0
-1719999999889.89,0.61907958984375,7.242184448242188,6.3167053222656255,1729620449812.0
-1719999999889.881,0.3823638916015625,7.280166625976563,6.022268676757813,1729620449821.0
-1719999999889.871,0.184228515625,7.197622680664063,6.283209228515625,1729620449831.0
-1719999999889.861,-0.2974273681640625,7.139602661132813,7.359271240234375,1729620449841.0
-1719999999889.851,-0.7621856689453126,7.165023803710938,7.374972534179688,1729620449851.0
-1719999999889.841,-0.7197174072265625,6.991262817382813,6.6609375,1729620449861.0
-1719999999889.831,-0.5628540039062501,7.100125122070313,6.311770629882813,1729620449871.0
-1719999999889.821,-0.3031097412109375,7.39127197265625,6.397155761718751,1729620449881.0
-1719999999889.811,0.043365478515625,7.369140625000001,7.138406372070313,1729620449891.0
-1719999999889.801,0.4478607177734375,7.355682373046876,6.273937988281251,1729620449901.0
-1719999999889.791,0.7958312988281251,7.274484252929688,6.177188110351563,1729620449911.0
-1719999999889.781,0.8052520751953126,7.365551757812501,6.354986572265625,1729620449921.0
-1719999999889.771,0.411822509765625,7.25908203125,6.854586791992188,1729620449931.0
-1719999999889.761,-0.030206298828125,7.229922485351563,6.97197265625,1729620449941.0
-1719999999889.751,-0.308343505859375,7.168612670898438,6.309677124023438,1729620449951.0
-1719999999889.741,-0.59515380859375,7.216165161132813,6.456970214843751,1729620449961.0
-1719999999889.731,-0.6948944091796876,7.174444580078125,6.540112304687501,1729620449971.0
-1719999999889.721,-0.4750762939453125,7.09219970703125,7.0838256835937505,1729620449981.0
-1719999999889.711,-0.151629638671875,7.233212280273438,6.815707397460938,1729620449991.0
-1719999999889.701,0.3709991455078125,7.188949584960938,6.200216674804688,1729620450001.0
-1719999999889.6912,0.692352294921875,7.5114990234375005,6.649423217773438,1729620450011.0
-1719999999889.6812,0.5321990966796876,7.819992065429688,6.804043579101563,1729620450021.0
-1719999999889.6711,0.26856689453125,6.823184204101563,6.224441528320313,1729620450031.0
-1719999999889.6611,-0.139068603515625,7.0120483398437505,6.158944702148438,1729620450041.0
-1719999999889.6511,-0.287408447265625,7.204800415039063,7.46903076171875,1729620450051.0
-1719999999889.641,-0.2588470458984375,7.343869018554688,6.973916625976563,1729620450061.0
-1719999999889.631,-0.6335845947265626,7.255194091796875,7.182818603515625,1729620450071.0
-1719999999889.621,-0.8040557861328126,6.9148498535156255,5.869143676757813,1729620450081.0
-1719999999889.611,-0.480609130859375,7.475909423828125,6.480596923828125,1729620450091.0
-1719999999889.601,0.2163787841796875,7.531985473632813,6.999786376953126,1729620450101.0
-1719999999889.591,0.5326477050781251,7.413552856445313,5.897106933593751,1729620450111.0
-1719999999889.581,0.5706298828125,6.954776000976563,6.776080322265625,1729620450121.0
-1719999999889.571,0.603826904296875,6.988870239257813,6.660787963867188,1729620450131.0
-1719999999889.561,0.4266265869140625,7.465740966796876,7.667465209960938,1729620450141.0
-1719999999889.551,0.1401153564453125,7.256539916992188,6.629684448242188,1729620450151.0
-1719999999889.541,-0.46595458984375,7.281362915039063,5.318701171875,1729620450161.0
-1719999999889.531,-0.70401611328125,7.322186279296876,6.210086059570313,1729620450171.0
-1719999999889.521,-0.5947052001953126,7.316802978515626,7.1227050781250005,1729620450181.0
-1719999999889.511,-0.5136566162109375,7.222296142578125,7.594342041015626,1729620450191.0
-1719999999889.502,-0.3306243896484375,6.880007934570313,6.5592529296875,1729620450200.0
-1719999999889.491,0.0435150146484375,6.814959716796875,6.416146850585938,1729620450211.0
-1719999999889.482,0.5148529052734375,7.389477539062501,7.112088012695313,1729620450220.0
-1719999999889.471,0.6177337646484375,7.587463378906251,6.774884033203126,1729620450231.0
-1719999999889.4622,0.6279022216796876,7.21781005859375,5.906228637695313,1729620450240.0
-1719999999889.451,0.259295654296875,7.338037109375,5.870339965820313,1729620450251.0
-1719999999889.442,0.0841888427734375,7.435385131835938,6.5739074707031255,1729620450260.0
-1719999999889.432,-0.099591064453125,7.456320190429688,7.137509155273438,1729620450270.0
-1719999999889.422,-0.4236358642578125,7.182070922851563,6.470278930664063,1729620450280.0
-1719999999889.412,-0.4486083984375,6.959561157226563,6.210086059570313,1729620450290.0
-1719999999889.402,-0.4056915283203125,7.079190063476563,7.141247558593751,1729620450300.0
-1719999999889.392,-0.262884521484375,7.127340698242188,7.525405883789063,1729620450310.0
-1719999999889.382,-0.2145843505859375,7.14244384765625,7.164425659179688,1729620450320.0
-1719999999889.372,0.021234130859375,7.113284301757813,5.9129577636718755,1729620450330.0
-1719999999889.362,0.3087921142578125,7.518676757812501,5.941070556640625,1729620450340.0
-1719999999889.352,0.6210235595703125,7.603912353515626,6.299658203125,1729620450350.0
-1719999999889.342,0.6136962890625001,7.414599609375,6.193038940429688,1729620450360.0
-1719999999889.332,0.42767333984375,7.126293945312501,6.459213256835938,1729620450370.0
-1719999999889.322,0.471337890625,7.0419555664062505,6.777127075195313,1729620450380.0
-1719999999889.312,0.0394775390625,7.1215087890625,7.387533569335938,1729620450390.0
-1719999999889.302,-0.4948150634765625,7.4935546875,7.404281616210938,1729620450400.0
-1719999999889.292,-1.119876098632813,7.275082397460938,6.641049194335938,1729620450410.0
-1719999999889.282,-1.19150390625,6.5948425292968755,5.374777221679688,1729620450420.0
-1719999999889.272,-0.8104858398437501,7.508508300781251,6.8439697265625,1729620450430.0
-1719999999889.262,-0.036785888671875,7.630679321289063,7.415496826171876,1729620450440.0
-1719999999889.252,0.6806884765625001,7.203604125976563,6.444857788085938,1729620450450.0
-1719999999889.242,0.819158935546875,7.02042236328125,6.397305297851563,1729620450460.0
-1719999999889.232,0.8493652343750001,7.032833862304688,6.387734985351563,1729620450470.0
-1719999999889.222,0.599041748046875,7.538116455078126,7.6478759765625,1729620450480.0
-1719999999889.2122,0.2489776611328125,7.520620727539063,6.440670776367188,1729620450490.0
-1719999999889.202,-0.346624755859375,7.144238281250001,5.326925659179688,1729620450500.0
-1719999999889.1912,-0.9030487060546876,7.201062011718751,6.258834838867188,1729620450511.0
-1719999999889.182,-1.0289581298828123,7.183416748046875,7.721597290039063,1729620450520.0
-1719999999889.172,-0.9257781982421877,7.150967407226563,7.829412841796875,1729620450530.0
-1719999999889.162,-0.4533935546875,6.909017944335938,6.325079345703125,1729620450540.0
-1719999999889.152,0.1260589599609375,7.089956665039063,5.894863891601563,1729620450550.0
-1719999999889.143,0.6987823486328125,7.621408081054688,6.538467407226563,1729620450559.0
-1719999999889.133,0.954937744140625,7.395907592773438,7.207192993164063,1729620450569.0
-1719999999889.123,0.7686157226562501,7.102069091796875,6.308181762695313,1729620450579.0
-1719999999889.113,0.5650970458984376,7.208987426757813,6.149374389648438,1729620450589.0
-1719999999889.103,0.153424072265625,7.335345458984375,6.538766479492188,1729620450599.0
-1719999999889.093,-0.2525665283203125,7.363009643554688,6.762921142578126,1729620450609.0
-1719999999889.083,-0.7243530273437501,7.400692749023438,6.9298034667968755,1729620450619.0
-1719999999889.073,-0.8468231201171875,7.011300659179688,5.980099487304688,1729620450629.0
-1719999999889.063,-0.62027587890625,7.069470214843751,6.562692260742188,1729620450639.0
-1719999999889.053,-0.2349212646484375,7.253549194335938,7.344317626953125,1729620450649.0
-1719999999889.043,0.1063201904296875,7.1331726074218755,7.231118774414063,1729620450659.0
-1719999999889.033,0.3566436767578125,7.128536987304688,6.651068115234375,1729620450669.0
-1719999999889.023,0.6180328369140625,7.222146606445313,5.963052368164063,1729620450679.0
-1719999999889.013,0.5507415771484375,7.464245605468751,6.453979492187501,1729620450689.0
-1719999999889.003,0.3539520263671875,7.556658935546875,6.555364990234375,1729620450699.0
-1719999999888.9932,0.024224853515625,7.271194458007813,6.3654541015625,1729620450709.0
-1719999999888.9832,-0.2256500244140625,7.2647644042968755,6.2362548828125,1729620450719.0
-1719999999888.9731,-0.2950347900390625,7.0856201171875,6.768902587890626,1729620450729.0
-1719999999888.9631,-0.364569091796875,7.192089843750001,6.894961547851563,1729620450739.0
-1719999999888.9531,-0.25361328125,6.888232421875,7.068722534179688,1729620450749.0
-1719999999888.943,-0.068487548828125,7.105957031250001,6.808529663085938,1729620450759.0
-1719999999888.933,0.098992919921875,7.303793334960938,6.516635131835938,1729620450769.0
-1719999999888.923,0.27694091796875,7.795318603515626,6.566580200195313,1729620450779.0
-1719999999888.913,0.24822998046875,7.85423583984375,6.286199951171875,1729620450789.0
-1719999999888.903,0.033795166015625,6.679928588867188,5.5107055664062505,1729620450799.0
-1719999999888.893,-0.24822998046875,7.004122924804688,7.005020141601563,1729620450809.0
-1719999999888.883,-0.115740966796875,7.0987792968750005,8.044146728515626,1729620450819.0
-1719999999888.873,0.1389190673828125,7.2483154296875005,7.1660705566406255,1729620450829.0
-1719999999888.863,-0.2992218017578125,7.182070922851563,6.743331909179688,1729620450839.0
-1719999999888.853,-0.5733215332031251,7.075302124023438,5.413656616210938,1729620450849.0
-1719999999888.843,-0.49765625,7.706942749023438,6.7712951660156255,1729620450859.0
-1719999999888.833,0.1924530029296875,7.718008422851563,6.396258544921875,1729620450869.0
-1719999999888.823,0.44920654296875,7.27164306640625,5.995352172851563,1729620450879.0
-1719999999888.813,0.2201171875,6.817202758789063,6.764715576171875,1729620450889.0
-1719999999888.803,0.2428466796875,6.822586059570313,7.506414794921875,1729620450899.0
-1719999999888.793,0.2555572509765625,7.390673828125,8.096334838867188,1729620450909.0
-1719999999888.783,0.1786956787109375,7.3021484375,5.929556274414063,1729620450919.0
-1719999999888.773,-0.3216522216796875,7.375869750976563,5.056414794921875,1729620450929.0
-1719999999888.7642,-0.5194885253906251,7.364205932617188,6.091055297851563,1729620450938.0
-1719999999888.753,-0.420794677734375,7.473965454101563,7.539462280273438,1729620450949.0
-1719999999888.744,-0.2779876708984375,7.2528015136718755,7.456918334960938,1729620450958.0
-1719999999888.7332,-0.1012359619140625,6.623403930664063,6.180029296875,1729620450969.0
-1719999999888.724,0.074169921875,6.8251281738281255,6.596038818359376,1729620450978.0
-1719999999888.714,0.3243438720703125,7.395159912109375,7.550228881835938,1729620450988.0
-1719999999888.704,0.4065887451171875,7.472021484375,7.1944824218750005,1729620450998.0
-1719999999888.694,0.22191162109375,7.335494995117188,5.609548950195313,1729620451008.0
-1719999999888.684,0.0423187255859375,7.33385009765625,5.077200317382813,1729620451018.0
-1719999999888.674,0.0829925537109375,7.601370239257813,6.5807861328125,1729620451028.0
-1719999999888.664,0.006878662109375,7.60899658203125,7.487872314453125,1729620451038.0
-1719999999888.654,-0.1326385498046875,6.883148193359376,6.640301513671876,1729620451048.0
-1719999999888.644,-0.244940185546875,6.763967895507813,6.390875244140625,1729620451058.0
-1719999999888.634,-0.1679290771484375,7.017880249023438,7.214370727539063,1729620451068.0
-1719999999888.624,-0.1188812255859375,7.398001098632813,7.707092285156251,1729620451078.0
-1719999999888.614,-0.2642303466796875,7.272390747070313,6.603067016601563,1729620451088.0
-1719999999888.604,-0.18841552734375,7.1550048828125,5.281167602539063,1729620451098.0
-1719999999888.594,0.1662841796875,7.478302001953126,5.835946655273438,1729620451108.0
-1719999999888.584,0.5923126220703125,7.674343872070313,6.656301879882813,1729620451118.0
-1719999999888.574,0.5746673583984375,7.284054565429688,6.903335571289063,1729620451128.0
-1719999999888.564,0.5022918701171876,6.785501098632813,6.6130859375,1729620451138.0
-1719999999888.554,0.2259490966796875,7.0090576171875005,6.975411987304688,1729620451148.0
-1719999999888.544,-0.1389190673828125,7.655352783203125,7.557257080078125,1729620451158.0
-1719999999888.534,-0.6492858886718751,7.493704223632813,6.719854736328125,1729620451168.0
-1719999999888.524,-1.155615234375,6.618170166015625,5.277728271484375,1729620451178.0
-1719999999888.5142,-0.9541900634765624,7.180276489257813,6.23924560546875,1729620451188.0
-1719999999888.5042,-0.128900146484375,7.647427368164063,7.752102661132813,1729620451198.0
-1719999999888.494,0.4649078369140625,7.3918701171875005,7.150668334960938,1729620451208.0
-1719999999888.484,0.5235260009765625,6.749761962890625,6.345565795898438,1729620451218.0
-1719999999888.474,0.4487579345703125,7.102069091796875,6.024661254882813,1729620451228.0
-1719999999888.464,0.5628540039062501,7.514639282226563,7.348953247070313,1729620451238.0
-1719999999888.454,0.4418792724609375,7.78245849609375,6.707443237304688,1729620451248.0
-1719999999888.444,-0.1434051513671875,7.200015258789063,5.510556030273438,1729620451258.0
-1719999999888.434,-0.654669189453125,6.958364868164063,5.894116210937501,1729620451268.0
-1719999999888.425,-0.7777374267578125,7.21781005859375,7.761672973632813,1729620451277.0
-1719999999888.414,-0.605322265625,7.175491333007813,8.057754516601562,1729620451288.0
-1719999999888.405,-0.4655059814453125,7.1167236328125005,6.343173217773438,1729620451297.0
-1719999999888.394,-0.040374755859375,6.961804199218751,5.597137451171875,1729620451308.0
-1719999999888.385,0.393280029296875,7.536322021484375,6.233413696289063,1729620451317.0
-1719999999888.375,0.6936981201171876,7.4561706542968755,7.546640014648438,1729620451327.0
-1719999999888.365,0.5633026123046876,7.218707275390625,6.759780883789063,1729620451337.0
-1719999999888.355,0.313726806640625,6.928009033203126,6.0236145019531255,1729620451347.0
-1719999999888.344,0.176153564453125,7.203903198242188,6.317752075195313,1729620451358.0
-1719999999888.335,-0.11544189453125,7.434039306640625,7.336392211914063,1729620451367.0
-1719999999888.325,-0.43365478515625,7.441067504882813,6.913653564453125,1729620451377.0
-1719999999888.315,-0.7049133300781251,7.093994140625001,5.92880859375,1729620451387.0
-1719999999888.305,-0.4077850341796875,7.174295043945313,5.798413085937501,1729620451397.0
-1719999999888.295,0.0136077880859375,7.450787353515626,7.0838256835937505,1729620451407.0
-1719999999888.2852,0.204266357421875,7.3245788574218755,7.379458618164063,1729620451417.0
-1719999999888.2751,0.299969482421875,6.920980834960938,6.689349365234375,1729620451427.0
-1719999999888.2651,0.331072998046875,7.139602661132813,6.281265258789063,1729620451437.0
-1719999999888.2551,0.4000091552734375,7.296615600585938,6.648526000976563,1729620451447.0
-1719999999888.244,0.117236328125,7.510452270507813,6.932046508789063,1729620451458.0
-1719999999888.235,-0.3049041748046875,7.229922485351563,6.373379516601563,1729620451467.0
-1719999999888.225,-0.442327880859375,7.190444946289063,6.037969970703125,1729620451477.0
-1719999999888.215,-0.222509765625,7.398599243164063,6.568972778320313,1729620451487.0
-1719999999888.205,-0.019439697265625,7.317550659179688,6.643142700195313,1729620451497.0
-1719999999888.195,0.03529052734375,6.825726318359376,6.830212402343751,1729620451507.0
-1719999999888.185,0.2319305419921875,7.009506225585938,7.0539184570312505,1729620451517.0
-1719999999888.175,0.317315673828125,7.223043823242188,7.161883544921875,1729620451527.0
-1719999999888.165,0.2752960205078125,7.686904907226563,6.242086791992188,1729620451537.0
-1719999999888.155,0.076861572265625,7.819543457031251,6.265563964843751,1729620451547.0
-1719999999888.145,-0.262286376953125,7.249362182617188,5.382254028320313,1729620451557.0
-1719999999888.135,-0.5446105957031251,6.742733764648438,6.770248413085938,1729620451567.0
-1719999999888.125,-0.6102569580078125,7.138854980468751,8.126840209960939,1729620451577.0
-1719999999888.115,-0.095404052734375,7.026553344726563,7.154855346679688,1729620451587.0
-1719999999888.105,0.181536865234375,7.236053466796876,6.782809448242188,1729620451597.0
-1719999999888.095,-0.0378326416015625,7.209436035156251,5.966342163085938,1729620451607.0
-1719999999888.085,-0.1562652587890625,7.424618530273438,6.4079223632812505,1729620451617.0
-1719999999888.075,0.16090087890625,7.808627319335938,6.621160888671875,1729620451627.0
-1719999999888.065,0.6625946044921875,7.392767333984375,5.72484130859375,1729620451637.0
-1719999999888.055,0.3270355224609375,7.171902465820313,6.180926513671875,1729620451647.0
-1719999999888.044,-0.026318359375,6.824081420898438,7.408767700195313,1729620451658.0
-1719999999888.0352,-0.221612548828125,7.072760009765625,8.084521484375001,1729620451667.0
-1719999999888.026,-0.1614990234375,7.188949584960938,6.913055419921876,1729620451676.0
-1719999999888.016,-0.24703369140625,7.400842285156251,5.365805053710938,1729620451686.0
-1719999999888.006,-0.468048095703125,7.267156982421875,5.8082824707031255,1729620451696.0
-1719999999887.996,-0.319110107421875,7.471273803710938,6.933242797851563,1729620451706.0
-1719999999887.986,-0.016748046875,7.385739135742188,7.4890686035156255,1729620451716.0
-1719999999887.976,0.3098388671875,6.972720336914063,6.369641113281251,1729620451726.0
-1719999999887.966,0.2193695068359375,6.634619140625,6.410464477539063,1729620451736.0
-1719999999887.956,0.21951904296875,7.1316772460937505,7.378561401367188,1729620451746.0
-1719999999887.945,0.12261962890625,7.4516845703125005,7.813262939453126,1729620451757.0
-1719999999887.935,-0.069085693359375,7.515835571289063,5.7892913818359375,1729620451767.0
-1719999999887.926,-0.10587158203125,7.3350463867187505,4.803250122070313,1729620451776.0
-1719999999887.916,-0.0593658447265625,7.693035888671876,5.7792724609375,1729620451786.0
-1719999999887.906,0.0261688232421875,7.517031860351563,7.4935546875,1729620451796.0
-1719999999887.896,0.0019439697265625,6.919186401367188,7.521218872070313,1729620451806.0
-1719999999887.886,-0.0399261474609375,6.692938232421875,6.55985107421875,1729620451816.0
-1719999999887.876,0.113946533203125,6.862811279296875,6.967935180664063,1729620451826.0
-1719999999887.866,0.0348419189453125,7.430450439453126,7.241885375976563,1729620451836.0
-1719999999887.856,-0.2860626220703125,7.412805175781251,6.797912597656251,1729620451846.0
-1719999999887.844,-0.3581390380859375,7.276577758789063,5.543753051757813,1729620451858.0
-1719999999887.836,0.0085235595703125,7.547985839843751,5.444610595703125,1729620451866.0
-1719999999887.826,0.3970184326171875,7.565631103515625,6.424221801757813,1729620451876.0
-1719999999887.8162,0.5235260009765625,7.2411376953125,6.8200439453125,1729620451886.0
-1719999999887.8062,0.5598632812500001,6.81705322265625,7.262969970703126,1729620451896.0
-1719999999887.796,0.328082275390625,6.95103759765625,7.078741455078125,1729620451906.0
-1719999999887.786,0.165985107421875,7.54140625,7.297363281250001,1729620451916.0
-1719999999887.776,-0.5550781250000001,7.676287841796875,6.516336059570313,1729620451926.0
-1719999999887.766,-1.1937469482421876,6.728677368164063,5.3137664794921875,1729620451936.0
-1719999999887.756,-1.1122497558593751,7.0658813476562505,6.467886352539063,1729620451946.0
-1719999999887.744,-0.41810302734375,7.601220703125,7.635763549804688,1729620451958.0
-1719999999887.736,0.340643310546875,7.216314697265625,7.071115112304688,1729620451966.0
-1719999999887.726,0.4855438232421875,7.028048706054688,6.555065917968751,1729620451976.0
-1719999999887.716,0.53653564453125,7.070965576171876,6.308480834960938,1729620451986.0
-1719999999887.706,0.5947052001953126,7.51688232421875,6.888980102539063,1729620451996.0
-1719999999887.696,0.52935791015625,7.637109375,6.521420288085938,1729620452006.0
-1719999999887.687,0.1281524658203125,7.31650390625,5.4467041015625,1729620452015.0
-1719999999887.676,-0.4151123046875,7.160986328125,6.448745727539063,1729620452026.0
-1719999999887.667,-0.7953826904296876,6.946701049804688,7.61258544921875,1729620452035.0
-1719999999887.656,-0.9106750488281252,7.101919555664063,7.807131958007813,1729620452046.0
-1719999999887.644,-0.693548583984375,7.014141845703126,6.753500366210938,1729620452058.0
-1719999999887.637,-0.251519775390625,7.1873046875,5.631082153320313,1729620452065.0
-1719999999887.627,0.2017242431640625,7.600473022460938,6.211581420898438,1729620452075.0
-1719999999887.617,0.6581085205078125,7.370486450195313,6.747817993164063,1729620452085.0
-1719999999887.607,0.7587463378906251,7.190444946289063,6.9298034667968755,1729620452095.0
-1719999999887.597,0.6835296630859375,7.076199340820313,6.686209106445313,1729620452105.0
-1719999999887.5872,0.3730926513671875,6.993057250976563,6.418240356445313,1729620452115.0
-1719999999887.5771,0.00179443359375,7.230520629882813,7.177734375000001,1729620452125.0
-1719999999887.5671,-0.50184326171875,7.515237426757813,6.811819458007813,1729620452135.0
-1719999999887.5571,-0.7885040283203125,7.258782958984376,5.920584106445313,1729620452145.0
-1719999999887.545,-0.6673797607421875,7.255194091796875,6.072064208984376,1729620452157.0
-1719999999887.537,-0.408233642578125,7.363308715820313,6.547589111328126,1729620452165.0
-1719999999887.527,-0.0131591796875,7.178182983398438,7.264465332031251,1729620452175.0
-1719999999887.517,0.3506622314453125,6.945654296875,7.044497680664063,1729620452185.0
-1719999999887.507,0.6886138916015625,7.250259399414063,6.479251098632813,1729620452195.0
-1719999999887.497,0.7472320556640626,7.372579956054688,6.607403564453126,1729620452205.0
-1719999999887.487,0.48509521484375,7.3933654785156255,6.170608520507813,1729620452215.0
-1719999999887.477,-0.1290496826171875,7.211380004882813,6.776379394531251,1729620452225.0
-1719999999887.467,-0.4747772216796875,7.294223022460938,6.215768432617188,1729620452235.0
-1719999999887.457,-0.38759765625,7.331756591796876,6.552374267578125,1729620452245.0
-1719999999887.444,-0.3515594482421875,7.421328735351563,6.327471923828125,1729620452258.0
-1719999999887.437,-0.16329345703125,6.8012023925781255,6.5843750000000005,1729620452265.0
-1719999999887.427,-0.1463958740234375,6.957318115234376,7.592547607421875,1729620452275.0
-1719999999887.417,0.1185821533203125,7.101321411132813,7.269848632812501,1729620452285.0
-1719999999887.407,0.430963134765625,7.439273071289063,6.53831787109375,1729620452295.0
-1719999999887.397,0.4403839111328125,7.972518920898438,5.777777099609375,1729620452305.0
-1719999999887.387,0.1997802734375,7.4172912597656255,5.547192382812501,1729620452315.0
-1719999999887.377,-0.201275634765625,6.940869140625001,6.345416259765625,1729620452325.0
-1719999999887.367,-0.3165679931640625,7.124798583984376,7.882797241210938,1729620452335.0
-1719999999887.357,-0.1834808349609375,6.913803100585938,7.444058227539063,1729620452345.0
-1719999999887.347,-0.145947265625,7.066928100585938,6.867596435546876,1729620452355.0
-1719999999887.3372,-0.5103668212890625,7.124948120117188,6.682022094726563,1729620452365.0
-1719999999887.3271,-0.5323486328125,7.488171386718751,6.053372192382813,1729620452375.0
-1719999999887.3171,-0.12022705078125,7.783206176757813,6.639105224609375,1729620452385.0
-1719999999887.3071,0.4272247314453125,7.453927612304688,5.451638793945313,1729620452395.0
-1719999999887.297,0.4840484619140625,7.188052368164063,6.217712402343751,1729620452405.0
-1719999999887.287,0.40853271484375,6.923522949218751,7.473666381835938,1729620452415.0
-1719999999887.277,0.3826629638671875,7.0195251464843755,7.811618041992188,1729620452425.0
-1719999999887.268,0.1688262939453125,7.1182189941406255,7.227230834960938,1729620452434.0
-1719999999887.258,-0.1502838134765625,7.306185913085938,5.480947875976563,1729620452444.0
-1719999999887.248,-0.6567626953125001,7.44510498046875,6.029446411132813,1729620452454.0
-1719999999887.238,-0.7026702880859376,7.5503784179687505,6.393118286132813,1729620452464.0
-1719999999887.228,-0.4714874267578125,7.252352905273438,7.154257202148438,1729620452474.0
-1719999999887.217,-0.193499755859375,7.066030883789063,6.697573852539063,1729620452485.0
-1719999999887.208,0.0375335693359375,6.708340454101563,6.7742858886718755,1729620452494.0
-1719999999887.198,0.389691162109375,6.990066528320313,7.262371826171876,1729620452504.0
-1719999999887.188,0.593658447265625,7.355233764648438,7.354934692382813,1729620452514.0
-1719999999887.178,0.5191894531250001,7.503872680664063,6.193637084960938,1729620452524.0
-1719999999887.168,0.254510498046875,7.287344360351563,5.366702270507813,1729620452534.0
-1719999999887.158,-0.0587677001953125,7.613034057617188,5.8175537109375,1729620452544.0
-1719999999887.148,-0.145050048828125,7.56473388671875,6.919784545898438,1729620452554.0
-1719999999887.138,-0.1969390869140625,7.332653808593751,6.796417236328126,1729620452564.0
-1719999999887.128,-0.2938385009765625,6.752902221679688,6.655105590820313,1729620452574.0
-1719999999887.1182,-0.33555908203125,6.810772705078126,7.056610107421876,1729620452584.0
-1719999999887.1082,-0.2124908447265625,7.077096557617188,7.724588012695313,1729620452594.0
-1719999999887.098,-0.1353302001953125,7.34342041015625,7.042254638671875,1729620452604.0
-1719999999887.088,0.008074951171875,7.277774047851563,5.819348144531251,1729620452614.0
-1719999999887.078,0.147442626953125,7.437777709960938,5.588165283203125,1729620452624.0
-1719999999887.068,0.2555572509765625,7.574902343750001,6.417343139648438,1729620452634.0
-1719999999887.058,0.3656158447265625,7.41160888671875,6.75963134765625,1729620452644.0
-1719999999887.048,0.5640502929687501,7.092349243164063,6.179730224609376,1729620452654.0
-1719999999887.038,0.5490966796875001,7.003225708007813,6.489120483398438,1729620452664.0
-1719999999887.028,0.194097900390625,6.880157470703126,7.4412170410156255,1729620452674.0
-1719999999887.018,-0.385205078125,7.466189575195313,7.936929321289063,1729620452684.0
-1719999999887.008,-0.7237548828125,7.7531494140625,6.611740112304688,1729620452694.0
-1719999999886.998,-0.8275329589843751,7.083526611328126,4.8516998291015625,1729620452704.0
-1719999999886.988,-0.9099273681640626,7.021319580078125,5.897705078125,1729620452714.0
-1719999999886.978,-0.5947052001953126,7.301251220703126,7.973715209960938,1729620452724.0
-1719999999886.968,0.3177642822265625,7.461105346679688,7.486227416992188,1729620452734.0
-1719999999886.958,1.109857177734375,6.985281372070313,6.483737182617188,1729620452744.0
-1719999999886.948,0.8810668945312501,6.960009765625,6.000286865234376,1729620452754.0
-1719999999886.938,0.2069580078125,7.230969238281251,6.992160034179688,1729620452764.0
-1719999999886.929,0.11304931640625,7.8010009765625,7.076947021484376,1729620452773.0
-1719999999886.918,0.107965087890625,7.604360961914063,5.744879150390625,1729620452784.0
-1719999999886.909,-0.399859619140625,7.170706176757813,5.18052978515625,1729620452793.0
-1719999999886.899,-1.2033172607421876,6.8490539550781255,7.283456420898438,1729620452803.0
-1719999999886.8892,-1.0673889160156251,7.0464416503906255,8.392266845703126,1729620452813.0
-1719999999886.8792,-0.315521240234375,7.1855102539062505,7.638006591796875,1729620452823.0
-1719999999886.8691,0.2489776611328125,7.15799560546875,5.466592407226563,1729620452833.0
-1719999999886.845,0.3294281005859375,7.174145507812501,5.286999511718751,1729620452857.0
-1719999999886.845,0.5716766357421875,7.442263793945313,7.237698364257813,1729620452857.0
-1719999999886.8372,0.8348602294921875,7.647427368164063,7.568771362304688,1729620452865.0
-1719999999886.829,0.6790435791015625,7.177285766601563,6.151916503906251,1729620452873.0
-1719999999886.819,0.187518310546875,6.740042114257813,5.358776855468751,1729620452883.0
-1719999999886.809,-0.3527557373046875,7.188949584960938,7.294671630859376,1729620452893.0
-1719999999886.799,-0.739605712890625,7.5593505859375005,8.15390625,1729620452903.0
-1719999999886.789,-0.70401611328125,7.168762207031251,6.350051879882813,1729620452913.0
-1719999999886.779,-0.5658447265625001,7.214669799804688,5.089163208007813,1729620452923.0
-1719999999886.769,-0.20516357421875,7.277175903320313,5.95811767578125,1729620452933.0
-1719999999886.759,0.2648284912109375,7.466488647460938,7.722344970703125,1729620452943.0
-1719999999886.749,0.5384796142578125,7.317401123046875,7.645333862304688,1729620452953.0
-1719999999886.739,0.7509704589843751,6.8699890136718755,5.871685791015626,1729620452963.0
-1719999999886.729,0.6652862548828126,7.132873535156251,5.969482421875,1729620452973.0
-1719999999886.719,0.1999298095703125,7.357925415039063,7.146331787109376,1729620452983.0
-1719999999886.709,-0.375933837890625,7.45946044921875,7.331607055664063,1729620452993.0
-1719999999886.699,-0.6210235595703125,7.2498107910156255,6.141598510742188,1729620453003.0
-1719999999886.689,-0.5286102294921875,7.295120239257813,5.183071899414063,1729620453013.0
-1719999999886.679,-0.33914794921875,7.380804443359375,6.738845825195313,1729620453023.0
-1719999999886.669,-0.268865966796875,7.1454345703125,7.546340942382813,1729620453033.0
-1719999999886.659,-0.0011962890625,6.538168334960938,7.176388549804688,1729620453043.0
-1719999999886.649,0.6150421142578125,7.034030151367188,6.562841796875,1729620453053.0
-1719999999886.6392,0.9857421875,7.5641357421875,6.711032104492188,1729620453063.0
-1719999999886.6292,0.6033782958984375,7.862011718750001,6.17344970703125,1729620453073.0
-1719999999886.6191,-0.0142059326171875,8.260525512695313,6.116177368164063,1729620453083.0
-1719999999886.6091,-0.4242340087890625,6.782061767578125,5.404086303710938,1729620453093.0
-1719999999886.598,-0.7031188964843751,6.41868896484375,6.397155761718751,1729620453104.0
-1719999999886.589,-0.9272735595703124,7.056759643554688,9.186752319335938,1729620453113.0
-1719999999886.579,-0.307745361328125,6.920382690429688,7.754794311523438,1729620453123.0
-1719999999886.57,-0.045159912109375,7.318746948242188,6.842324829101563,1729620453132.0
-1719999999886.56,-0.0533843994140625,7.287643432617188,5.128192138671875,1729620453142.0
-1719999999886.55,-0.0626556396484375,7.716513061523438,5.563192749023438,1729620453152.0
-1719999999886.539,0.3327178955078125,7.985977172851563,6.958663940429688,1729620453163.0
-1719999999886.53,1.0140045166015623,7.386636352539063,5.546444702148438,1729620453172.0
-1719999999886.519,0.6854736328125001,6.924420166015626,6.728826904296875,1729620453183.0
-1719999999886.51,0.0835906982421875,6.456671142578125,7.712625122070313,1729620453192.0
-1719999999886.499,-0.5067779541015626,6.974514770507813,8.6515625,1729620453203.0
-1719999999886.49,-0.591864013671875,7.366000366210938,7.075152587890625,1729620453212.0
-1719999999886.48,-0.5395263671875,7.586566162109375,4.457223510742188,1729620453222.0
-1719999999886.47,-0.7303344726562501,7.635464477539063,5.0102081298828125,1729620453232.0
-1719999999886.46,-0.4547393798828125,7.40921630859375,6.750509643554688,1729620453242.0
-1719999999886.45,0.06280517578125,7.246221923828125,8.212075805664064,1729620453252.0
-1719999999886.44,0.655865478515625,6.81107177734375,7.215866088867188,1729620453262.0
-1719999999886.43,0.774298095703125,6.561495971679688,6.224740600585938,1729620453272.0
-1719999999886.42,0.6078643798828125,7.097433471679688,6.842025756835938,1729620453282.0
-1719999999886.4102,0.2340240478515625,7.628585815429688,7.5856689453125,1729620453292.0
-1719999999886.4,-0.21234130859375,7.642642211914063,6.225039672851563,1729620453302.0
-1719999999886.39,-0.4486083984375,7.286148071289063,4.742837524414063,1729620453312.0
-1719999999886.38,-0.62745361328125,7.400543212890626,5.807086181640625,1729620453322.0
-1719999999886.37,-0.4945159912109375,7.452880859375001,7.574752807617188,1729620453332.0
-1719999999886.36,-0.174957275390625,7.150967407226563,7.708587646484376,1729620453342.0
-1719999999886.35,0.2687164306640625,6.759780883789063,6.432296752929688,1729620453352.0
-1719999999886.34,0.500347900390625,6.89122314453125,6.356930541992188,1729620453362.0
-1719999999886.33,0.4318603515625,7.306335449218751,7.262222290039063,1729620453372.0
-1719999999886.32,0.1571624755859375,7.490115356445313,7.351046752929688,1729620453382.0
-1719999999886.31,-0.0850860595703125,7.380355834960938,5.828469848632813,1729620453392.0
-1719999999886.3,-0.092413330078125,7.317700195312501,5.143893432617188,1729620453402.0
-1719999999886.29,-0.1006378173828125,7.6341186523437505,6.1836181640625005,1729620453412.0
-1719999999886.28,-0.0755157470703125,7.356878662109375,7.043600463867188,1729620453422.0
-1719999999886.27,0.1649383544921875,7.062142944335938,6.820193481445313,1729620453432.0
-1719999999886.26,0.4487579345703125,6.60770263671875,6.855184936523438,1729620453442.0
-1719999999886.25,0.1942474365234375,6.892718505859375,7.275082397460938,1729620453452.0
-1719999999886.24,-0.0874786376953125,7.583874511718751,7.917938232421876,1729620453462.0
-1719999999886.231,-0.2809783935546875,7.9705749511718755,6.167019653320313,1729620453471.0
-1719999999886.22,-0.47672119140625,7.251605224609375,4.460513305664063,1729620453482.0
-1719999999886.211,-0.6510803222656251,7.039712524414063,5.9208831787109375,1729620453491.0
-1719999999886.2,-0.7108947753906251,7.085171508789063,8.1251953125,1729620453502.0
-1719999999886.1912,0.09749755859375,7.149472045898438,7.930050659179688,1729620453511.0
-1719999999886.1812,0.7538116455078125,6.955972290039063,6.88883056640625,1729620453521.0
-1719999999886.1711,0.6341827392578125,6.996646118164063,5.946902465820313,1729620453531.0
-1719999999886.1611,-0.0133087158203125,7.547836303710938,6.4512878417968755,1729620453541.0
-1719999999886.1511,-0.0177947998046875,7.844515991210938,6.688153076171876,1729620453551.0
-1719999999886.1392,0.18243408203125,7.536172485351563,5.705700683593751,1729620453563.0
-1719999999886.131,-0.2089019775390625,7.158743286132813,5.568127441406251,1729620453571.0
-1719999999886.12,-0.73870849609375,6.700265502929688,7.590005493164063,1729620453582.0
-1719999999886.111,-0.7648773193359375,7.016683959960938,8.494699096679689,1729620453591.0
-1719999999886.101,-0.2074066162109375,7.1215087890625,7.518826293945313,1729620453601.0
-1719999999886.091,0.0608612060546875,7.196725463867188,5.400946044921875,1729620453611.0
-1719999999886.081,0.088226318359375,7.482040405273438,5.148977661132813,1729620453621.0
-1719999999886.07,0.246435546875,7.628585815429688,6.932345581054688,1729620453632.0
-1719999999886.061,0.6104064941406251,7.318298339843751,7.08621826171875,1729620453641.0
-1719999999886.051,0.5778076171875001,7.258782958984376,6.588113403320313,1729620453651.0
-1719999999886.041,0.2331268310546875,6.7488647460937505,6.236553955078126,1729620453661.0
-1719999999886.031,-0.0494964599609375,6.96300048828125,6.945803833007813,1729620453671.0
-1719999999886.021,-0.4493560791015625,7.448992919921875,8.078390502929688,1729620453681.0
-1719999999886.011,-0.6153411865234375,7.271792602539063,6.303994750976563,1729620453691.0
-1719999999886.001,-0.60352783203125,7.082928466796876,5.6736999511718755,1729620453701.0
-1719999999885.991,-0.4619171142578125,7.508657836914063,5.946453857421876,1729620453711.0
-1719999999885.981,-0.0001495361328125,7.455123901367188,7.005618286132813,1729620453721.0
-1719999999885.971,0.5199371337890626,7.410861206054688,6.986178588867188,1729620453731.0
-1719999999885.961,0.7840179443359375,7.168164062500001,6.076849365234375,1729620453741.0
-1719999999885.951,0.8720947265625001,6.944458007812501,6.449343872070313,1729620453751.0
-1719999999885.9412,0.4092803955078125,7.319046020507813,7.2961669921875005,1729620453761.0
-1719999999885.9312,-0.1242645263671875,7.16995849609375,7.223043823242188,1729620453771.0
-1719999999885.9211,-0.448309326171875,7.37392578125,6.134719848632813,1729620453781.0
-1719999999885.9111,-0.6347808837890625,7.25010986328125,5.821890258789063,1729620453791.0
-1719999999885.9011,-0.7158294677734376,7.399496459960938,6.320294189453126,1729620453801.0
-1719999999885.891,-0.5984436035156251,7.194931030273438,7.352841186523438,1729620453811.0
-1719999999885.881,0.0011962890625,7.053021240234376,6.609945678710938,1729620453821.0
-1719999999885.871,0.6285003662109375,6.842773437500001,6.507812500000001,1729620453831.0
-1719999999885.861,1.00308837890625,7.333401489257813,6.757687377929688,1729620453841.0
-1719999999885.851,0.7200164794921875,7.410263061523438,7.162631225585938,1729620453851.0
-1719999999885.841,0.4777679443359375,7.965789794921876,6.380258178710938,1729620453861.0
-1719999999885.832,0.0689361572265625,7.753298950195313,5.565136718750001,1729620453870.0
-1719999999885.822,-0.506329345703125,6.495999145507813,5.1260986328125,1729620453880.0
-1719999999885.812,-1.184326171875,6.996646118164063,8.039361572265626,1729620453890.0
-1719999999885.802,-1.1082122802734375,7.037020874023438,8.833398437500001,1729620453900.0
-1719999999885.792,-0.3859527587890625,7.039862060546875,7.070217895507813,1729620453910.0
-1719999999885.782,-0.204864501953125,7.166668701171876,5.956921386718751,1729620453920.0
-1719999999885.772,-0.107366943359375,7.354486083984376,5.151519775390625,1729620453930.0
-1719999999885.762,0.20875244140625,7.820141601562501,7.090704345703125,1729620453940.0
-1719999999885.752,1.0397247314453126,7.734906005859376,6.394613647460938,1729620453950.0
-1719999999885.742,1.2149810791015625,7.135864257812501,5.8281707763671875,1729620453960.0
-1719999999885.732,0.5145538330078125,6.672750854492188,6.797763061523438,1729620453970.0
-1719999999885.722,-0.1550689697265625,6.917242431640625,8.048782348632812,1729620453980.0
-1719999999885.7122,-0.4714874267578125,7.4083190917968755,7.88175048828125,1729620453990.0
-1719999999885.702,-0.5809478759765625,7.328317260742188,5.616726684570313,1729620454000.0
-1719999999885.692,-1.0083221435546876,7.3096252441406255,4.903439331054688,1729620454010.0
-1719999999885.682,-1.0065277099609375,7.287344360351563,6.414501953125001,1729620454020.0
-1719999999885.672,-0.394476318359375,7.521817016601563,8.062689208984375,1729620454030.0
-1719999999885.662,0.286810302734375,7.017880249023438,7.360916137695313,1729620454040.0
-1719999999885.652,0.6945953369140625,6.631478881835938,5.806637573242188,1729620454050.0
-1719999999885.642,0.7200164794921875,6.771893310546876,6.823333740234376,1729620454060.0
-1719999999885.632,0.7373626708984375,7.533630371093751,7.876217651367188,1729620454070.0
-1719999999885.622,0.411822509765625,7.723541259765626,6.949841308593751,1729620454080.0
-1719999999885.612,0.01854248046875,7.373626708984376,4.605563354492188,1729620454090.0
-1719999999885.602,-0.3816162109375,7.438375854492188,4.775735473632813,1729620454100.0
-1719999999885.592,-0.5205352783203125,7.73759765625,6.988421630859375,1729620454110.0
-1719999999885.582,-0.3910369873046875,7.3200927734375005,7.910610961914063,1729620454120.0
-1719999999885.572,-0.2764923095703125,6.703854370117188,6.885690307617188,1729620454130.0
-1719999999885.562,-0.091217041015625,6.450988769531251,6.6429931640625,1729620454140.0
-1719999999885.552,-0.030804443359375,6.968084716796875,7.664324951171875,1729620454150.0
-1719999999885.542,0.0686370849609375,7.556359863281251,7.626193237304688,1729620454160.0
-1719999999885.532,0.12142333984375,7.591351318359376,5.921630859375,1729620454170.0
-1719999999885.522,0.246734619140625,7.417141723632813,4.3006591796875,1729620454180.0
-1719999999885.513,0.295184326171875,7.647427368164063,5.911611938476563,1729620454189.0
-1719999999885.502,0.2773895263671875,7.533630371093751,7.445404052734376,1729620454200.0
-1719999999885.492,0.361279296875,7.076498413085938,6.855633544921876,1729620454210.0
-1719999999885.482,0.4981048583984375,6.911111450195313,6.252105712890626,1729620454220.0
-1719999999885.472,0.2872589111328125,6.536972045898438,6.915447998046876,1729620454230.0
-1719999999885.4631,-0.357391357421875,7.3350463867187505,8.321087646484376,1729620454239.0
-1719999999885.452,-0.8269348144531251,7.965939331054688,7.5967346191406255,1729620454250.0
-1719999999885.442,-1.0195373535156251,7.361962890625,4.886990356445313,1729620454260.0
-1719999999885.433,-0.764129638671875,6.7147705078125,4.232769775390626,1729620454269.0
-1719999999885.422,-0.5194885253906251,7.515835571289063,7.406674194335938,1729620454280.0
-1719999999885.413,0.3255401611328125,7.396505737304688,8.78016357421875,1729620454289.0
-1719999999885.402,1.0316497802734377,7.0359741210937505,7.161285400390626,1729620454300.0
-1719999999885.393,1.0044342041015626,6.566580200195313,5.930752563476563,1729620454309.0
-1719999999885.383,0.413616943359375,7.208837890625,5.9548278808593755,1729620454319.0
-1719999999885.373,0.0306549072265625,8.00616455078125,7.512396240234375,1729620454329.0
-1719999999885.363,-0.058319091796875,7.828665161132813,6.133224487304688,1729620454339.0
-1719999999885.353,-0.5911163330078125,7.148724365234376,4.7376037597656255,1729620454349.0
-1719999999885.343,-1.056622314453125,6.648376464843751,6.791033935546875,1729620454359.0
-1719999999885.333,-1.0310516357421875,7.058255004882813,8.700759887695312,1729620454369.0
-1719999999885.323,-0.4035980224609375,7.19986572265625,8.402734375000001,1729620454379.0
-1719999999885.313,0.1766021728515625,6.964794921875001,5.8834991455078125,1729620454389.0
-1719999999885.303,0.4619171142578125,7.204202270507813,4.475616455078125,1729620454399.0
-1719999999885.293,0.66334228515625,7.785299682617188,6.656301879882813,1729620454409.0
-1719999999885.283,0.816168212890625,7.598379516601563,7.664773559570313,1729620454419.0
-1719999999885.273,0.593658447265625,7.179678344726563,6.573309326171875,1729620454429.0
-1719999999885.263,0.1505828857421875,6.923074340820313,5.678335571289063,1729620454439.0
-1719999999885.253,-0.1921539306640625,6.9372802734375005,6.337490844726563,1729620454449.0
-1719999999885.2432,-0.5333953857421876,7.449441528320313,8.27353515625,1729620454459.0
-1719999999885.2332,-0.8074951171875001,7.385440063476563,7.093246459960938,1729620454469.0
-1719999999885.2231,-0.6914550781250001,6.864456176757813,5.504873657226563,1729620454479.0
-1719999999885.2131,-0.426177978515625,7.219006347656251,5.914154052734375,1729620454489.0
-1719999999885.2031,0.0713287353515625,7.43553466796875,7.221548461914063,1729620454499.0
-1719999999885.193,0.43544921875,7.455572509765625,7.6718017578125,1729620454509.0
-1719999999885.183,0.6926513671875001,7.1466308593750005,5.8079833984375,1729620454519.0
-1719999999885.173,0.9441711425781252,7.250857543945313,5.4962005615234375,1729620454529.0
-1719999999885.163,0.66094970703125,7.382150268554688,6.98154296875,1729620454539.0
-1719999999885.153,-0.03170166015625,7.257736206054688,7.509704589843751,1729620454549.0
-1719999999885.143,-0.6754547119140626,7.036273193359375,6.944308471679688,1729620454559.0
-1719999999885.133,-0.6138458251953125,7.262371826171876,5.543902587890625,1729620454569.0
-1719999999885.123,-0.436944580078125,7.415347290039063,6.207095336914063,1729620454579.0
-1719999999885.113,-0.4414306640625,7.339382934570313,6.855633544921876,1729620454589.0
-1719999999885.103,-0.3817657470703125,6.793426513671876,7.314559936523438,1729620454599.0
-1719999999885.094,0.106170654296875,6.784454345703126,7.0616943359375,1729620454608.0
-1719999999885.084,0.7787841796875,7.366598510742188,6.713574218750001,1729620454618.0
-1719999999885.074,0.8764312744140625,7.675540161132813,6.227731323242188,1729620454628.0
-1719999999885.064,0.40494384765625,7.973117065429688,5.9862304687500005,1729620454638.0
-1719999999885.054,-0.027215576171875,7.371383666992188,6.08970947265625,1729620454648.0
-1719999999885.044,-0.286212158203125,6.593496704101563,5.930303955078125,1729620454658.0
-1719999999885.034,-0.5776580810546875,7.07724609375,8.068670654296875,1729620454668.0
-1719999999885.024,-0.4882354736328125,7.003674316406251,7.90208740234375,1729620454678.0
-1719999999885.0142,-0.3503631591796875,7.12808837890625,6.691293334960938,1729620454688.0
-1719999999885.0042,-0.409429931640625,7.208538818359376,6.379061889648438,1729620454698.0
-1719999999884.994,-0.2669219970703125,7.5518737792968755,5.50113525390625,1729620454708.0
-1719999999884.984,0.021533203125,7.665371704101563,6.962402343750001,1729620454718.0
-1719999999884.974,0.5639007568359375,7.511798095703125,5.857778930664063,1729620454728.0
-1719999999884.964,0.7041656494140626,7.154705810546876,6.337191772460938,1729620454738.0
-1719999999884.954,0.5108154296875,6.799407958984376,7.167864990234375,1729620454748.0
-1719999999884.944,0.1296478271484375,7.025357055664063,7.763018798828125,1729620454758.0
-1719999999884.934,-0.1745086669921875,7.1855102539062505,7.585968017578126,1729620454768.0
-1719999999884.924,-0.3541015625,7.418487548828126,5.36834716796875,1729620454778.0
-1719999999884.914,-0.5939575195312501,7.545443725585938,5.5859222412109375,1729620454788.0
-1719999999884.904,-0.5480499267578125,7.509106445312501,6.013745117187501,1729620454798.0
-1719999999884.894,-0.3838592529296875,7.233810424804688,7.44510498046875,1729620454808.0
-1719999999884.884,0.072674560546875,6.913803100585938,7.395159912109375,1729620454818.0
-1719999999884.874,0.2788848876953125,6.813314819335938,6.818847656250001,1729620454828.0
-1719999999884.864,0.42408447265625,6.925018310546876,6.924270629882813,1729620454838.0
-1719999999884.854,0.3289794921875,7.365252685546875,6.842922973632813,1729620454848.0
-1719999999884.844,0.2086029052734375,7.534228515625,6.50841064453125,1729620454858.0
-1719999999884.834,0.04725341796875,7.462750244140626,5.732916259765625,1729620454868.0
-1719999999884.824,-0.2310333251953125,7.414001464843751,5.854339599609375,1729620454878.0
-1719999999884.814,-0.210845947265625,7.389178466796875,6.518878173828125,1729620454888.0
-1719999999884.804,-0.157012939453125,7.287493896484375,7.2049499511718755,1729620454898.0
-1719999999884.794,0.06998291015625,7.062442016601563,6.737500000000001,1729620454908.0
-1719999999884.784,0.0438140869140625,6.9597106933593755,6.772341918945313,1729620454918.0
-1719999999884.774,0.044561767578125,7.021469116210938,6.817202758789063,1729620454928.0
-1719999999884.7642,-0.0669921875,7.241287231445313,7.440917968750001,1729620454938.0
-1719999999884.7542,-0.1975372314453125,7.279119873046875,6.632675170898438,1729620454948.0
-1719999999884.744,-0.1830322265625,7.2258850097656255,5.909817504882813,1729620454958.0
-1719999999884.734,-0.0291595458984375,7.623202514648438,5.818899536132813,1729620454968.0
-1719999999884.724,0.3165679931640625,7.559201049804688,6.055166625976563,1729620454978.0
-1719999999884.715,0.518890380859375,7.233062744140626,6.533233642578126,1729620454987.0
-1719999999884.705,0.6075653076171875,6.958065795898438,6.970327758789063,1729620454997.0
-1719999999884.695,0.2583984375,6.909616088867188,7.362411499023438,1729620455007.0
-1719999999884.684,0.1176849365234375,7.164874267578125,7.466189575195313,1729620455018.0
-1719999999884.675,-0.3792236328125,7.864254760742188,6.718508911132813,1729620455027.0
-1719999999884.665,-0.9476104736328126,7.105209350585938,5.426217651367188,1729620455037.0
-1719999999884.655,-1.1324371337890626,6.927560424804688,5.912509155273438,1729620455047.0
-1719999999884.644,-0.7959808349609375,7.396954345703126,7.504171752929688,1729620455058.0
-1719999999884.635,0.115142822265625,7.347756958007813,7.284054565429688,1729620455067.0
-1719999999884.625,0.6464447021484375,7.075152587890625,6.718060302734376,1729620455077.0
-1719999999884.615,0.752166748046875,6.949093627929688,6.269003295898438,1729620455087.0
-1719999999884.605,0.5106658935546875,7.353289794921875,6.7742858886718755,1729620455097.0
-1719999999884.595,0.5682373046875,7.673895263671875,6.826025390625,1729620455107.0
-1719999999884.585,0.3300262451171875,7.504620361328126,5.888583374023438,1729620455117.0
-1719999999884.575,-0.3802703857421875,7.212127685546876,5.623455810546876,1729620455127.0
-1719999999884.565,-0.9547882080078126,6.921578979492188,7.2169128417968755,1729620455137.0
-1719999999884.555,-1.0193878173828126,7.114181518554688,7.953677368164063,1729620455147.0
-1719999999884.544,-0.6422576904296875,7.156799316406251,7.288391113281251,1729620455158.0
-1719999999884.5352,-0.2678192138671875,7.06229248046875,6.03228759765625,1729620455167.0
-1719999999884.5251,0.0928619384765625,7.290185546875,5.6946350097656255,1729620455177.0
-1719999999884.5151,0.5172454833984376,7.547088623046876,6.959262084960938,1729620455187.0
-1719999999884.5051,0.9045440673828126,7.293176269531251,6.976010131835938,1729620455197.0
-1719999999884.495,0.867010498046875,7.182369995117188,6.41270751953125,1729620455207.0
-1719999999884.485,0.39656982421875,7.053619384765626,6.232217407226563,1729620455217.0
-1719999999884.475,0.0488983154296875,7.121807861328126,6.81705322265625,1729620455227.0
-1719999999884.465,-0.4535430908203125,7.43314208984375,7.478900146484375,1729620455237.0
-1719999999884.455,-0.8016632080078125,7.281811523437501,6.2876953125,1729620455247.0
-1719999999884.444,-0.84158935546875,7.098330688476563,5.9672393798828125,1729620455258.0
-1719999999884.435,-0.6042755126953125,7.34342041015625,6.224591064453126,1729620455267.0
-1719999999884.425,-0.0518890380859375,7.374374389648438,7.096835327148438,1729620455277.0
-1719999999884.415,0.448309326171875,7.212576293945313,7.091452026367188,1729620455287.0
-1719999999884.405,0.7547088623046876,7.084722900390625,6.383547973632813,1729620455297.0
-1719999999884.396,0.7355682373046876,7.056610107421876,6.673348999023438,1729620455306.0
-1719999999884.385,0.539227294921875,7.402337646484376,6.69981689453125,1729620455317.0
-1719999999884.376,0.10826416015625,7.4181884765625,6.807781982421876,1729620455326.0
-1719999999884.365,-0.3087921142578125,7.370037841796876,5.818002319335938,1729620455337.0
-1719999999884.356,-0.5313018798828125,7.2632690429687505,6.173300170898438,1729620455346.0
-1719999999884.344,-0.66693115234375,7.243380737304688,6.7267333984375,1729620455358.0
-1719999999884.336,-0.44501953125,7.032086181640626,6.988272094726563,1729620455366.0
-1719999999884.326,-0.027215576171875,6.897354125976563,7.191790771484375,1729620455376.0
-1719999999884.3162,0.296380615234375,7.040161132812501,6.822586059570313,1729620455386.0
-1719999999884.305,0.4903289794921875,7.436431884765626,6.649273681640626,1729620455397.0
-1719999999884.296,0.453692626953125,7.912106323242188,6.458465576171876,1729620455406.0
-1719999999884.286,0.2836700439453125,7.6700073242187505,5.731570434570313,1729620455416.0
-1719999999884.276,-0.01495361328125,6.7147705078125,5.595791625976563,1729620455426.0
-1719999999884.266,-0.4448699951171875,7.000384521484375,7.409664916992188,1729620455436.0
-1719999999884.256,-0.39537353515625,6.979748535156251,8.265161132812501,1729620455446.0
-1719999999884.244,-0.2310333251953125,7.158444213867188,7.191342163085938,1729620455458.0
-1719999999884.236,-0.37623291015625,7.152911376953125,6.532485961914063,1729620455466.0
-1719999999884.226,-0.5441619873046876,7.440768432617188,5.4135070800781255,1729620455476.0
-1719999999884.216,-0.310736083984375,7.705746459960938,6.599478149414063,1729620455486.0
-1719999999884.206,0.3572418212890625,7.696026611328126,6.0793914794921875,1729620455496.0
-1719999999884.196,0.7514190673828125,7.206146240234376,5.919088745117188,1729620455506.0
-1719999999884.186,0.6404632568359375,6.82303466796875,7.226333618164063,1729620455516.0
-1719999999884.176,0.244940185546875,6.78355712890625,7.944705200195313,1729620455526.0
-1719999999884.166,-0.0414215087890625,7.172500610351563,7.826123046875001,1729620455536.0
-1719999999884.156,-0.168975830078125,7.366897583007813,5.87078857421875,1729620455546.0
-1719999999884.144,-0.4774688720703125,7.649670410156251,4.828970336914063,1729620455558.0
-1719999999884.136,-0.7463348388671875,7.503125000000001,5.9877258300781255,1729620455566.0
-1719999999884.126,-0.5232269287109376,7.310671997070313,7.357925415039063,1729620455576.0
-1719999999884.116,-0.0976470947265625,7.070516967773438,7.672848510742188,1729620455586.0
-1719999999884.106,0.2404541015625,6.749761962890625,6.632376098632813,1729620455596.0
-1719999999884.096,0.4438232421875,6.722695922851563,6.698919677734375,1729620455606.0
-1719999999884.086,0.4741790771484375,7.316653442382813,7.270745849609376,1729620455616.0
-1719999999884.076,0.3069976806640625,7.5641357421875,7.021170043945313,1729620455626.0
-1719999999884.0662,0.0937591552734375,7.389926147460938,5.661587524414063,1729620455636.0
-1719999999884.0562,-0.252117919921875,7.412506103515626,5.307186889648438,1729620455646.0
-1719999999884.043,-0.3754852294921875,7.44151611328125,6.455026245117188,1729620455659.0
-1719999999884.036,-0.23626708984375,7.517330932617188,7.269400024414063,1729620455666.0
-1719999999884.026,0.002093505859375,7.192687988281251,6.863708496093751,1729620455676.0
-1719999999884.016,0.13099365234375,6.770098876953125,6.318350219726563,1729620455686.0
-1719999999884.007,0.143255615234375,6.914401245117188,7.072610473632813,1729620455695.0
-1719999999883.997,0.0509918212890625,7.247119140625,7.791281127929688,1729620455705.0
-1719999999883.986,-0.0764129638671875,7.285848999023438,6.836941528320313,1729620455716.0
-1719999999883.977,-0.0653472900390625,7.381851196289063,5.463601684570313,1729620455725.0
-1719999999883.967,-0.051739501953125,7.4935546875,5.453732299804688,1729620455735.0
-1719999999883.957,0.078955078125,7.643688964843751,6.4303527832031255,1729620455745.0
-1719999999883.947,0.1481903076171875,7.217959594726563,7.041207885742188,1729620455755.0
-1719999999883.937,0.37264404296875,6.965393066406251,6.501232910156251,1729620455765.0
-1719999999883.927,0.5058807373046875,6.617422485351563,7.13646240234375,1729620455775.0
-1719999999883.917,0.1710693359375,7.324429321289063,7.255792236328125,1729620455785.0
-1719999999883.907,-0.162994384765625,7.688101196289063,7.532135009765626,1729620455795.0
-1719999999883.897,-0.46834716796875,7.719952392578126,5.483938598632813,1729620455805.0
-1719999999883.887,-0.69803466796875,6.9866271972656255,5.086920166015625,1729620455815.0
-1719999999883.877,-0.9003570556640625,6.979748535156251,6.937130737304688,1729620455825.0
-1719999999883.867,-0.57421875,7.212725830078125,8.059548950195314,1729620455835.0
-1719999999883.857,0.383111572265625,7.206744384765625,7.381103515625001,1729620455845.0
-1719999999883.847,0.8641693115234376,7.003375244140625,6.158047485351563,1729620455855.0
-1719999999883.8372,0.4538421630859375,7.178482055664063,6.25479736328125,1729620455865.0
-1719999999883.8271,0.08553466796875,7.447198486328125,6.789089965820313,1729620455875.0
-1719999999883.8171,0.2893524169921875,7.8010009765625,6.40732421875,1729620455885.0
-1719999999883.8071,0.3267364501953125,7.471572875976563,5.694485473632813,1729620455895.0
-1719999999883.797,-0.358587646484375,6.972271728515626,6.117971801757813,1729620455905.0
-1719999999883.787,-1.080548095703125,6.750808715820313,7.860067749023438,1729620455915.0
-1719999999883.777,-0.8202056884765626,7.084124755859375,8.138204956054688,1729620455925.0
-1719999999883.767,-0.2038177490234375,7.285101318359375,6.906326293945313,1729620455935.0
-1719999999883.757,-0.00897216796875,7.232464599609376,5.151968383789063,1729620455945.0
-1719999999883.747,-0.0306549072265625,7.423870849609376,5.713925170898438,1729620455955.0
-1719999999883.737,0.451300048828125,7.37392578125,7.291531372070313,1729620455965.0
-1719999999883.727,0.8578887939453126,7.496246337890626,7.183566284179688,1729620455975.0
-1719999999883.717,0.7210632324218751,7.026254272460938,6.283059692382813,1729620455985.0
-1719999999883.707,0.232080078125,6.737350463867188,5.94615478515625,1729620455995.0
-1719999999883.697,-0.22550048828125,7.2154174804687505,7.7292236328125,1729620456005.0
-1719999999883.687,-0.4933197021484375,7.519873046875,7.512844848632813,1729620456015.0
-1719999999883.677,-0.6424072265625,7.298260498046876,5.885293579101563,1729620456025.0
-1719999999883.667,-0.7364654541015625,7.1914916992187505,5.275186157226563,1729620456035.0
-1719999999883.658,-0.4116729736328125,7.27822265625,6.249114990234376,1729620456044.0
